File: Data/Data_220228_NMC/Martin_0203_2_2022_03_04_172442/Martin_0203_2_Channel_29_IV&Aux__Wb_1.CSV
Data_Point,Date_Time,Test_Time(s),Step_Time(s),Cycle_Index,Step_Index,Current(A),Voltage(V),Power(W),Charge_Capacity(Ah),Discharge_Capacity(Ah),Charge_Energy(Wh),Discharge_Energy(Wh),ACR(Ohm),dV/dt(V/s),Internal_Resistance(Ohm),dQ/dV(Ah/V),dV/dQ(V/Ah)
1,03/04/2022 17:24:21.730,20.000,20.000,1,1,0.00000,3.28000,0.00000,0.00000,0.00000,0.00000,0.00000,,9.831369E-05,,,
39,03/04/2022 17:37:01.761,780.031,780.031,1,1,0.00000,3.31272,0.00000,0.00000,0.00000,0.00000,0.00000,,3.421813E-05,,,
77,03/04/2022 17:49:41.795,1540.065,1540.065,1,1,0.00000,3.32548,0.00000,0.00000,0.00000,0.00000,0.00000,,3.160793E-06,,,
115,03/04/2022 18:02:21.825,2300.095,2300.095,1,1,0.00000,3.33335,0.00000,0.00000,0.00000,0.00000,0.00000,,-9.088106E-07,,0,
153,03/04/2022 18:15:01.858,3060.128,3060.128,1,1,0.00000,3.33903,0.00000,0.00000,0.00000,0.00000,0.00000,,1.461964E-06,,,
191,03/04/2022 18:27:41.885,3820.155,3820.155,1,1,0.00000,3.34340,0.00000,0.00000,0.00000,0.00000,0.00000,,-2.291727E-06,,,
229,03/04/2022 18:40:21.922,4580.192,4580.192,1,1,0.00000,3.34691,0.00000,0.00000,0.00000,0.00000,0.00000,,2.252065E-06,,,
267,03/04/2022 18:53:01.956,5340.226,5340.226,1,1,0.00000,3.34999,0.00000,0.00000,0.00000,0.00000,0.00000,,1.631881E-05,,0,
305,03/04/2022 19:05:41.985,6100.255,6100.255,1,1,0.00000,3.35250,0.00000,0.00000,0.00000,0.00000,0.00000,,8.811293E-06,,,
343,03/04/2022 19:18:22.017,6860.287,6860.287,1,1,0.00000,3.35473,0.00000,0.00000,0.00000,0.00000,0.00000,,-1.461867E-06,,,
381,03/04/2022 19:31:02.045,7620.315,7620.315,1,1,0.00000,3.35666,0.00000,0.00000,0.00000,0.00000,0.00000,,-2.884582E-06,,,
419,03/04/2022 19:43:42.085,8380.355,8380.355,1,1,0.00000,3.35840,0.00000,0.00000,0.00000,0.00000,0.00000,,7.901981E-06,,,
457,03/04/2022 19:56:22.119,9140.389,9140.389,1,1,0.00000,3.36001,0.00000,0.00000,0.00000,0.00000,0.00000,,-4.306794E-06,,,
495,03/04/2022 20:09:02.148,9900.418,9900.418,1,1,0.00000,3.36139,0.00000,0.00000,0.00000,0.00000,0.00000,,-3.279268E-06,,,
533,03/04/2022 20:21:42.185,10660.455,10660.455,1,1,0.00000,3.36258,0.00000,0.00000,0.00000,0.00000,0.00000,,1.236763E-05,,0,
571,03/04/2022 20:34:22.218,11420.488,11420.488,1,1,0.00000,3.36368,0.00000,0.00000,0.00000,0.00000,0.00000,,1.031191E-05,,,
609,03/04/2022 20:47:02.257,12180.527,12180.527,1,1,0.00000,3.36467,0.00000,0.00000,0.00000,0.00000,0.00000,,4.346126E-06,,,
647,03/04/2022 20:59:42.289,12940.559,12940.559,1,1,0.00000,3.36562,0.00000,0.00000,0.00000,0.00000,0.00000,,1.339563E-05,,,
685,03/04/2022 21:12:22.325,13700.595,13700.595,1,1,0.00000,3.36643,0.00000,0.00000,0.00000,0.00000,0.00000,,-6.835214E-06,,,
723,03/04/2022 21:24:01.972,14400.242,0.160,1,2,0.00024,3.39830,0.00081,0.00000,0.00000,0.00000,0.00000,,,,,
761,03/04/2022 21:24:06.356,14404.626,4.544,1,2,0.00103,3.78849,0.00392,0.00000,0.00000,0.00000,0.00000,,,,,
799,03/04/2022 21:29:53.021,14751.291,351.208,1,2,0.00103,3.97889,0.00411,0.00010,0.00000,0.00040,0.00000,,-9.870833E-05,,,
837,03/04/2022 21:42:33.062,15511.332,1111.249,1,2,0.00103,3.94154,0.00407,0.00032,0.00000,0.00127,0.00000,,-2.342996E-05,,-0.008371092,0
875,03/04/2022 21:55:13.107,16271.377,1871.295,1,2,0.00103,3.92314,0.00405,0.00054,0.00000,0.00212,0.00000,,-3.911967E-06,,,0
913,03/04/2022 22:07:53.149,17031.419,2631.337,1,2,0.00103,3.91392,0.00404,0.00076,0.00000,0.00298,0.00000,,1.189258E-05,,,
951,03/04/2022 22:20:33.193,17791.463,3391.381,1,2,0.00103,3.90811,0.00404,0.00097,0.00000,0.00383,0.00000,,-4.938738E-06,,,
989,03/04/2022 22:31:39.297,18457.567,457.424,1,3,0.00000,3.76241,0.00000,0.00103,0.00000,0.00406,0.00000,,-7.625917E-05,,,
1027,03/04/2022 22:44:19.325,19217.595,1217.452,1,3,0.00000,3.72471,0.00000,0.00103,0.00000,0.00406,0.00000,,-3.425963E-05,,0,
1065,03/04/2022 22:56:59.364,19977.634,1977.491,1,3,0.00000,3.70391,0.00000,0.00103,0.00000,0.00406,0.00000,,-2.552678E-05,,,
1103,03/04/2022 23:09:39.401,20737.671,2737.528,1,3,0.00000,3.69017,0.00000,0.00103,0.00000,0.00406,0.00000,,-8.060622E-06,,,
1141,03/04/2022 23:22:19.433,21497.703,3497.560,1,3,0.00000,3.68019,0.00000,0.00103,0.00000,0.00406,0.00000,,-1.576654E-05,,,
1179,03/04/2022 23:25:41.134,21699.404,99.181,1,4,-0.00103,3.34040,-0.00345,0.00103,0.00003,0.00406,0.00010,,-0.00103388,,0.0002732935,3715.072
1217,03/04/2022 23:31:59.547,22077.817,477.594,1,4,-0.00103,2.96013,-0.00306,0.00103,0.00014,0.00406,0.00044,,-0.001227579,,0.0002294425,4355.088
1255,03/04/2022 23:41:20.429,22638.699,1038.476,1,4,-0.00053,2.79999,-0.00148,0.00103,0.00026,0.00406,0.00077,,-9.127847E-06,,,
1293,03/04/2022 23:54:00.473,23398.743,1798.520,1,4,-0.00035,2.80001,-0.00097,0.00103,0.00034,0.00406,0.00102,,-6.480162E-06,,,
1331,03/05/2022 00:06:40.513,24158.783,2558.560,1,4,-0.00027,2.79999,-0.00076,0.00103,0.00041,0.00406,0.00120,,-9.324956E-06,,,
1369,03/05/2022 00:19:20.570,24918.840,3318.617,1,4,-0.00022,2.79999,-0.00063,0.00103,0.00046,0.00406,0.00135,,-4.543941E-06,,,
1407,03/05/2022 00:24:29.448,25227.718,27.434,1,5,0.00000,3.03079,0.00000,0.00103,0.00048,0.00406,0.00140,,0.00487996,,,
1445,03/05/2022 00:28:02.432,25440.702,240.418,1,5,0.00000,3.41112,0.00000,0.00103,0.00048,0.00406,0.00140,,0.0007344408,,,
1483,03/05/2022 00:40:32.703,26190.973,990.689,1,5,0.00000,3.53555,0.00000,0.00103,0.00048,0.00406,0.00140,,2.947634E-05,,,
1521,03/05/2022 00:53:12.732,26951.002,1750.719,1,5,0.00000,3.54829,0.00000,0.00103,0.00048,0.00406,0.00140,,1.706828E-05,,,
1559,03/05/2022 01:05:52.769,27711.039,2510.755,1,5,0.00000,3.55353,0.00000,0.00103,0.00048,0.00406,0.00140,,2.252233E-06,,,
1597,03/05/2022 01:18:32.801,28471.071,3270.788,1,5,0.00000,3.55650,0.00000,0.00103,0.00048,0.00406,0.00140,,1.948E-05,,0,
1635,03/05/2022 01:24:07.394,28805.664,5.292,2,2,0.00103,3.77980,0.00391,0.00000,0.00000,0.00001,0.00000,,0.01152068,,2.279031E-05,42420.23
1673,03/05/2022 01:35:40.483,29498.753,698.381,2,2,0.00103,3.82573,0.00395,0.00020,0.00000,0.00077,0.00000,,2.204963E-05,,,
1711,03/05/2022 01:48:20.527,30258.797,1458.425,2,2,0.00103,3.85091,0.00398,0.00042,0.00000,0.00160,0.00000,,3.085724E-05,,0,
1749,03/05/2022 02:01:00.571,31018.841,2218.469,2,2,0.00103,3.86928,0.00400,0.00064,0.00000,0.00245,0.00000,,1.501576E-05,,,0
1787,03/05/2022 02:13:40.615,31778.885,2978.513,2,2,0.00103,3.87527,0.00400,0.00085,0.00000,0.00329,0.00000,,1.23667E-05,,0,
1825,03/05/2022 02:25:03.888,32462.158,61.724,2,3,0.00000,3.81158,0.00000,0.00103,0.00000,0.00398,0.00000,,-0.0002271837,,,
1863,03/05/2022 02:37:43.923,33222.193,821.759,2,3,0.00000,3.74866,0.00000,0.00103,0.00000,0.00398,0.00000,,-4.88012E-05,,,
1901,03/05/2022 02:50:23.962,33982.232,1581.798,2,3,0.00000,3.72438,0.00000,0.00103,0.00000,0.00398,0.00000,,-2.825286E-05,,0,
1939,03/05/2022 03:03:03.991,34742.261,2341.827,2,3,0.00000,3.70980,0.00000,0.00103,0.00000,0.00398,0.00000,,-1.545042E-05,,,
1977,03/05/2022 03:15:44.021,35502.291,3101.857,2,3,0.00000,3.69994,0.00000,0.00103,0.00000,0.00398,0.00000,,5.887464E-06,,,
2015,03/05/2022 03:24:36.501,36034.771,34.255,2,4,-0.00103,3.55646,-0.00368,0.00103,0.00001,0.00398,0.00004,,-0.0009674654,,0.0002913771,3743.66
2053,03/05/2022 03:36:23.102,36741.372,740.857,2,4,-0.00103,3.20772,-0.00331,0.00103,0.00021,0.00398,0.00072,,-0.0005661262,,0.0005058828,1979.133
2091,03/05/2022 03:44:03.306,37201.576,1201.060,2,4,-0.00103,2.82750,-0.00292,0.00103,0.00034,0.00398,0.00112,,-0.001008051,,0.0002749948,3645.949
2129,03/05/2022 03:56:22.259,37940.529,1940.013,2,4,-0.00052,2.79998,-0.00145,0.00103,0.00049,0.00398,0.00152,,-7.389454E-06,,,
2167,03/05/2022 04:09:02.304,38700.574,2700.058,2,4,-0.00038,2.80000,-0.00107,0.00103,0.00058,0.00398,0.00178,,-7.349391E-06,,,
2205,03/05/2022 04:21:42.354,39460.624,3460.109,2,4,-0.00031,2.79997,-0.00087,0.00103,0.00065,0.00398,0.00198,,-8.968823E-06,,,
2243,03/05/2022 04:24:32.423,39630.693,30.115,2,5,0.00000,3.11096,0.00000,0.00103,0.00066,0.00398,0.00202,,0.005601884,,,
2281,03/05/2022 04:28:08.603,39846.873,246.296,2,5,0.00000,3.49093,0.00000,0.00103,0.00066,0.00398,0.00202,,0.0004588939,,0,
2319,03/05/2022 04:40:48.633,40606.903,1006.326,2,5,0.00000,3.55962,0.00000,0.00103,0.00066,0.00398,0.00202,,3.06602E-05,,,
2357,03/05/2022 04:53:28.660,41366.930,1766.353,2,5,0.00000,3.56823,0.00000,0.00103,0.00066,0.00398,0.00202,,1.382847E-05,,,
2395,03/05/2022 05:06:08.704,42126.974,2526.396,2,5,0.00000,3.57229,0.00000,0.00103,0.00066,0.00398,0.00202,,1.058865E-05,,,
2433,03/05/2022 05:18:48.740,42887.010,3286.432,2,5,0.00000,3.57465,0.00000,0.00103,0.00066,0.00398,0.00202,,8.061156E-06,,0,
2471,03/05/2022 05:24:03.735,43202.005,1.343,3,7,0.00344,3.84838,0.01326,0.00000,0.00000,0.00000,0.00000,,,,,
2509,03/05/2022 05:33:35.682,43773.952,573.290,3,7,0.00345,3.97862,0.01371,0.00055,0.00000,0.00217,0.00000,,0.0001506381,,,
2547,03/05/2022 05:46:15.730,44534.000,1333.337,3,7,0.00345,3.99885,0.01378,0.00128,0.00000,0.00508,0.00000,,-4.425109E-05,,-0.09670807,
2585,03/05/2022 05:58:55.779,45294.049,2093.387,3,7,0.00345,3.99376,0.01376,0.00200,0.00000,0.00798,0.00000,,2.580339E-05,,,
2623,03/05/2022 06:11:35.822,46054.092,2853.430,3,7,0.00345,4.01216,0.01382,0.00273,0.00000,0.01089,0.00000,,1.936018E-05,,,
2661,03/05/2022 06:24:02.395,46800.665,3600.002,3,7,0.00345,4.03772,0.01391,0.00344,0.00000,0.01376,0.00000,,3.255616E-05,0,0.02705432,0
2699,03/05/2022 06:35:17.084,47475.354,674.666,3,8,-0.00207,3.77850,-0.00781,0.00344,0.00039,0.01376,0.00149,,-0.0001110097,,0.004935261,208.058
2737,03/05/2022 06:47:57.111,48235.381,1434.692,3,8,-0.00207,3.71550,-0.00768,0.00344,0.00082,0.01376,0.00312,,-7.357171E-05,,,
2775,03/05/2022 07:00:37.151,48995.421,2194.732,3,8,-0.00207,3.65703,-0.00756,0.00344,0.00126,0.01376,0.00473,,-8.45483E-05,,0.006546934,150.566
2813,03/05/2022 07:13:17.185,49755.455,2954.767,3,8,-0.00207,3.54295,-0.00732,0.00344,0.00170,0.01376,0.00630,,-0.0002566193,,0.002079734,
2851,03/05/2022 07:25:33.897,50492.167,3691.479,3,8,-0.00207,3.22400,-0.00666,0.00344,0.00212,0.01376,0.00774,,-0.0006941109,,0.0008757957,1138.616
2889,03/05/2022 07:31:08.302,50826.572,4025.884,3,8,-0.00207,2.84377,-0.00588,0.00344,0.00231,0.01376,0.00833,,-0.001782974,,0.0003198651,3090.048
2927,03/05/2022 07:31:33.097,50851.367,1.183,4,7,0.00344,3.20495,0.01104,0.00000,0.00000,0.00000,0.00000,,,,,
2965,03/05/2022 07:31:36.346,50854.616,4.431,4,7,0.00345,3.59997,0.01240,0.00000,0.00000,0.00001,0.00000,,,,,
3003,03/05/2022 07:37:44.771,51223.041,372.856,4,7,0.00345,3.81712,0.01315,0.00036,0.00000,0.00136,0.00000,,1.592447E-05,,,
3041,03/05/2022 07:50:24.818,51983.088,1132.903,4,7,0.00345,3.85239,0.01327,0.00108,0.00000,0.00414,0.00000,,5.602551E-05,,,
3079,03/05/2022 08:03:04.866,52743.136,1892.951,4,7,0.00345,3.91505,0.01349,0.00181,0.00000,0.00697,0.00000,,9.926637E-05,,,
3117,03/05/2022 08:15:44.914,53503.184,2652.999,4,7,0.00345,3.99991,0.01378,0.00254,0.00000,0.00984,0.00000,,0.0001117599,,,
3155,03/05/2022 08:28:24.965,54263.235,3413.050,4,7,0.00345,4.04804,0.01395,0.00327,0.00000,0.01277,0.00000,,3.090084E-05,,0.0294326,
3193,03/05/2022 08:39:38.687,54936.957,486.746,4,8,-0.00207,3.84083,-0.00794,0.00344,0.00028,0.01350,0.00109,,-0.0001335361,,,
3231,03/05/2022 08:52:18.715,55696.985,1246.774,4,8,-0.00207,3.76801,-0.00779,0.00344,0.00072,0.01350,0.00274,,-6.958098E-05,,0.008331357,123.268
3269,03/05/2022 09:04:58.746,56457.016,2006.805,4,8,-0.00207,3.72615,-0.00770,0.00344,0.00115,0.01350,0.00438,,-5.851805E-05,,,
3307,03/05/2022 09:17:38.773,57217.043,2766.832,4,8,-0.00207,3.68932,-0.00763,0.00344,0.00159,0.01350,0.00600,,-5.128726E-05,,,
3345,03/05/2022 09:30:18.813,57977.083,3526.871,4,8,-0.00207,3.64700,-0.00754,0.00344,0.00202,0.01350,0.00760,,-6.357197E-05,,,
3383,03/05/2022 09:42:58.841,58737.111,4286.899,4,8,-0.00207,3.58212,-0.00740,0.00344,0.00246,0.01350,0.00917,,-0.0001229878,,0.004932283,
3421,03/05/2022 09:55:38.874,59497.144,5046.933,4,8,-0.00207,3.41818,-0.00707,0.00344,0.00290,0.01350,0.01071,,-0.000317204,,0.001838923,532.0798
3459,03/05/2022 10:06:32.733,60151.003,5700.791,4,8,-0.00207,3.08190,-0.00637,0.00344,0.00327,0.01350,0.01194,,-0.0009334007,,0.000593278,1655.726
3497,03/05/2022 10:09:58.437,60356.707,0.225,5,7,0.00345,2.95439,0.01018,0.00000,0.00000,0.00000,0.00000,,,,,
3535,03/05/2022 10:10:00.397,60358.667,2.185,5,7,0.00345,3.35622,0.01156,0.00000,0.00000,0.00001,0.00000,,,,,
3573,03/05/2022 10:10:08.164,60366.434,9.952,5,7,0.00345,3.74439,0.01290,0.00001,0.00000,0.00003,0.00000,,0.009358472,,9.596527E-05,10703.31
3611,03/05/2022 10:21:39.466,61057.736,701.253,5,7,0.00345,3.80837,0.01312,0.00067,0.00000,0.00255,0.00000,,1.70299E-05,,,
3649,03/05/2022 10:34:19.511,61817.781,1461.299,5,7,0.00345,3.84005,0.01323,0.00140,0.00000,0.00533,0.00000,,5.065254E-05,,,0
3687,03/05/2022 10:46:59.561,62577.831,2221.348,5,7,0.00345,3.88385,0.01338,0.00213,0.00000,0.00814,0.00000,,6.381643E-05,,,67.52865
3725,03/05/2022 10:59:39.606,63337.876,2981.393,5,7,0.00345,3.94524,0.01359,0.00285,0.00000,0.01098,0.00000,,9.450456E-05,,,
3763,03/05/2022 11:11:09.899,64028.169,71.659,5,8,-0.00207,3.87866,-0.00802,0.00344,0.00004,0.01333,0.00016,,-0.0003077802,,0.00175284,623.9243
3801,03/05/2022 11:23:49.935,64788.205,831.695,5,8,-0.00207,3.78343,-0.00782,0.00344,0.00048,0.01333,0.00183,,-7.978174E-05,,,
3839,03/05/2022 11:36:29.969,65548.239,1591.729,5,8,-0.00207,3.73834,-0.00773,0.00344,0.00091,0.01333,0.00347,,-3.741867E-05,,,
3877,03/05/2022 11:49:09.999,66308.269,2351.758,5,8,-0.00207,3.70305,-0.00765,0.00344,0.00135,0.01333,0.00509,,-4.124834E-05,,,
3915,03/05/2022 12:01:50.032,67068.302,3111.791,5,8,-0.00207,3.66581,-0.00758,0.00344,0.00179,0.01333,0.00670,,-6.02611E-05,,,
3953,03/05/2022 12:14:30.065,67828.335,3871.825,5,8,-0.00207,3.61795,-0.00748,0.00344,0.00222,0.01333,0.00829,,-7.309394E-05,,,
3991,03/05/2022 12:27:10.100,68588.370,4631.860,5,8,-0.00207,3.52917,-0.00729,0.00344,0.00266,0.01333,0.00985,,-0.0001851012,,0.003241673,301.5783
4029,03/05/2022 12:39:50.137,69348.407,5391.896,5,8,-0.00207,3.32372,-0.00687,0.00344,0.00310,0.01333,0.01135,,-0.0004199293,,0.001432369,679.7405
4067,03/05/2022 12:47:58.851,69837.121,5880.611,5,8,-0.00207,2.94903,-0.00610,0.00344,0.00338,0.01333,0.01224,,-0.001443639,,0.0004010981,2498.438
4105,03/05/2022 12:49:29.263,69927.533,0.691,6,10,0.00345,3.09152,0.01065,0.00000,0.00000,0.00000,0.00000,,,,,
4143,03/05/2022 12:49:31.850,69930.120,3.278,6,10,0.00345,3.48807,0.01202,0.00000,0.00000,0.00001,0.00000,,,,,
4181,03/05/2022 12:52:58.096,70136.366,209.524,6,10,0.00345,3.79863,0.01309,0.00020,0.00000,0.00076,0.00000,,1.228931E-05,,,0
4219,03/05/2022 13:05:38.134,70896.404,969.562,6,10,0.00345,3.81433,0.01314,0.00093,0.00000,0.00352,0.00000,,3.638893E-05,,0,
4257,03/05/2022 13:18:18.174,71656.444,1729.603,6,10,0.00345,3.84805,0.01326,0.00165,0.00000,0.00631,0.00000,,5.50446E-05,,,
4295,03/05/2022 13:30:58.210,72416.480,2489.638,6,10,0.00345,3.89220,0.01341,0.00238,0.00000,0.00912,0.00000,,6.163597E-05,,,
4333,03/05/2022 13:43:38.252,73176.522,3249.680,6,10,0.00345,3.95351,0.01362,0.00311,0.00000,0.01197,0.00000,,8.985266E-05,,,
4371,03/05/2022 13:54:43.269,73841.539,314.670,6,11,-0.00310,3.78344,-0.01173,0.00344,0.00027,0.01331,0.00103,,-0.0001526121,,,
4409,03/05/2022 14:07:23.300,74601.570,1074.701,6,11,-0.00310,3.70938,-0.01150,0.00344,0.00093,0.01331,0.00348,,-6.946245E-05,,,
4447,03/05/2022 14:20:03.337,75361.607,1834.739,6,11,-0.00310,3.65326,-0.01133,0.00344,0.00158,0.01331,0.00589,,-7.875368E-05,,,
4485,03/05/2022 14:32:43.371,76121.641,2594.772,6,11,-0.00310,3.57166,-0.01107,0.00344,0.00223,0.01331,0.00826,,-0.0001438446,,0.005685614,
4523,03/05/2022 14:45:17.462,76875.732,3348.863,6,11,-0.00310,3.32282,-0.01030,0.00344,0.00288,0.01331,0.01051,,-0.0006092309,,0.001508467,645.2868
4561,03/05/2022 14:51:11.434,77229.704,3702.835,6,11,-0.00310,2.94258,-0.00912,0.00344,0.00319,0.01331,0.01148,,-0.002081925,,0.0004225171,2350.043
4599,03/05/2022 14:52:11.775,77290.045,0.675,7,10,0.00345,3.13210,0.01079,0.00000,0.00000,0.00000,0.00000,,,,,
4637,03/05/2022 14:52:14.226,77292.496,3.126,7,10,0.00345,3.52982,0.01216,0.00000,0.00000,0.00001,0.00000,,,,,
4675,03/05/2022 14:57:21.336,77599.606,310.235,7,10,0.00345,3.79789,0.01308,0.00030,0.00000,0.00112,0.00000,,2.449777E-05,,,
4713,03/05/2022 15:10:01.374,78359.644,1070.274,7,10,0.00345,3.82088,0.01316,0.00102,0.00000,0.00389,0.00000,,4.037946E-05,,,0
4751,03/05/2022 15:22:41.421,79119.691,1830.320,7,10,0.00345,3.85703,0.01329,0.00175,0.00000,0.00668,0.00000,,6.16036E-05,,,
4789,03/05/2022 15:35:21.464,79879.734,2590.364,7,10,0.00345,3.90398,0.01345,0.00248,0.00000,0.00950,0.00000,,6.902438E-05,,0.01344822,
4827,03/05/2022 15:48:01.506,80639.776,3350.405,7,10,0.00345,3.96711,0.01367,0.00321,0.00000,0.01237,0.00000,,8.728221E-05,,,
4865,03/05/2022 15:59:09.089,81307.359,417.960,7,11,-0.00310,3.77365,-0.01170,0.00344,0.00036,0.01332,0.00137,,-0.0001199762,,,
4903,03/05/2022 16:11:49.118,82067.388,1177.990,7,11,-0.00310,3.70717,-0.01149,0.00344,0.00101,0.01332,0.00382,,-7.005048E-05,,,
4941,03/05/2022 16:24:29.151,82827.421,1938.023,7,11,-0.00310,3.65523,-0.01133,0.00344,0.00167,0.01332,0.00623,,-8.052786E-05,,0.01186975,
4979,03/05/2022 16:37:09.181,83587.451,2698.053,7,11,-0.00310,3.58500,-0.01111,0.00344,0.00232,0.01332,0.00860,,-0.000137594,,0.007047483,
5017,03/05/2022 16:49:49.215,84347.485,3458.087,7,11,-0.00310,3.39394,-0.01052,0.00344,0.00298,0.01332,0.01089,,-0.0004376307,,0.001966944,491.1099
5055,03/05/2022 16:57:16.977,84795.247,3905.849,7,11,-0.00310,3.01548,-0.00935,0.00344,0.00336,0.01332,0.01215,,-0.00179527,,0.0004930255,1988.322
5093,03/05/2022 16:58:53.417,84891.687,0.348,8,10,0.00345,3.05963,0.01054,0.00000,0.00000,0.00000,0.00000,,,,,
5131,03/05/2022 16:58:55.392,84893.662,2.323,8,10,0.00345,3.46363,0.01193,0.00000,0.00000,0.00001,0.00000,,,,,
5169,03/05/2022 17:01:40.965,85059.235,167.896,8,10,0.00345,3.80304,0.01310,0.00016,0.00000,0.00061,0.00000,,3.251854E-05,,,
5207,03/05/2022 17:14:21.008,85819.278,927.939,8,10,0.00345,3.81810,0.01315,0.00089,0.00000,0.00338,0.00000,,3.821115E-05,,,
5245,03/05/2022 17:27:01.049,86579.319,1687.980,8,10,0.00345,3.84861,0.01326,0.00162,0.00000,0.00616,0.00000,,4.721395E-05,,,
5283,03/05/2022 17:39:41.095,87339.365,2448.025,8,10,0.00345,3.88757,0.01339,0.00234,0.00000,0.00898,0.00000,,5.630908E-05,,,
5321,03/05/2022 17:52:21.139,88099.409,3208.070,8,10,0.00345,3.94062,0.01358,0.00307,0.00000,0.01182,0.00000,,8.351895E-05,,,
5359,03/05/2022 18:03:32.677,88770.947,279.581,8,11,-0.00310,3.77973,-0.01172,0.00344,0.00024,0.01331,0.00092,,-0.0001563179,,0.005421429,191.9662
5397,03/05/2022 18:16:12.712,89530.982,1039.615,8,11,-0.00310,3.71023,-0.01150,0.00344,0.00090,0.01331,0.00337,,-6.890927E-05,,,
5435,03/05/2022 18:28:52.744,90291.014,1799.647,8,11,-0.00310,3.66050,-0.01135,0.00344,0.00155,0.01331,0.00578,,-7.685696E-05,,,
5473,03/05/2022 18:41:32.781,91051.051,2559.685,8,11,-0.00310,3.59834,-0.01116,0.00344,0.00220,0.01331,0.00815,,-0.0001045196,,,
5511,03/05/2022 18:54:12.811,91811.081,3319.715,8,11,-0.00310,3.44664,-0.01069,0.00344,0.00286,0.01331,0.01047,,-0.0003967492,,0.00221072,441.508
5549,03/05/2022 19:02:54.146,92332.416,3841.050,8,11,-0.00310,3.07117,-0.00952,0.00344,0.00331,0.01331,0.01195,,-0.001446321,,0.0005771864,1672.347
5587,03/05/2022 19:05:10.227,92468.497,0.144,9,13,0.00345,3.07668,0.01060,0.00000,0.00000,0.00000,0.00000,,,,,
5625,03/05/2022 19:05:11.771,92470.041,1.687,9,13,0.00344,3.48456,0.01200,0.00000,0.00000,0.00001,0.00000,,,,,
5663,03/05/2022 19:07:14.964,92593.234,124.880,9,13,0.00345,3.83522,0.01321,0.00012,0.00000,0.00046,0.00000,,-9.319814E-05,,,
5701,03/05/2022 19:19:54.998,93353.268,884.915,9,13,0.00345,3.82607,0.01318,0.00085,0.00000,0.00324,0.00000,,2.311349E-05,,,
5739,03/05/2022 19:32:35.042,94113.312,1644.958,9,13,0.00345,3.85137,0.01327,0.00157,0.00000,0.00603,0.00000,,4.63904E-05,,0,
5777,03/05/2022 19:45:15.082,94873.352,2404.998,9,13,0.00345,3.88637,0.01339,0.00230,0.00000,0.00884,0.00000,,4.492276E-05,,,0
5815,03/05/2022 19:57:55.127,95633.397,3165.043,9,13,0.00345,3.93474,0.01356,0.00303,0.00000,0.01168,0.00000,,7.187745E-05,,,
5853,03/05/2022 20:08:54.145,96292.415,224.033,9,14,-0.00413,3.74942,-0.01550,0.00344,0.00026,0.01333,0.00097,,-0.0002041094,,0.005457642,189.4263
5891,03/05/2022 20:21:34.181,97052.451,984.070,9,14,-0.00413,3.66153,-0.01514,0.00344,0.00113,0.01333,0.00420,,-8.470176E-05,,,
5929,03/05/2022 20:34:14.218,97812.488,1744.107,9,14,-0.00413,3.58130,-0.01481,0.00344,0.00200,0.01333,0.00736,,-0.0001356652,,,
5967,03/05/2022 20:46:26.595,98544.865,2476.483,9,14,-0.00413,3.35283,-0.01386,0.00344,0.00284,0.01333,0.01031,,-0.0007767802,,0.001570167,609.6456
6005,03/05/2022 20:51:35.122,98853.392,2785.011,9,14,-0.00413,2.97259,-0.01229,0.00344,0.00320,0.01333,0.01144,,-0.001986142,,0.0005949211,1629.123
6043,03/05/2022 20:52:46.017,98924.287,0.404,10,13,0.00345,3.26282,0.01124,0.00000,0.00000,0.00000,0.00000,,0.45579,,2.426134E-06,412178.4
6081,03/05/2022 20:52:48.218,98926.488,2.605,10,13,0.00345,3.66327,0.01262,0.00000,0.00000,0.00001,0.00000,,,,,
6119,03/05/2022 21:00:29.541,99387.811,463.927,10,13,0.00345,3.82479,0.01318,0.00044,0.00000,0.00170,0.00000,,-2.24049E-05,,0,
6157,03/05/2022 21:13:09.582,100147.852,1223.969,10,13,0.00345,3.84145,0.01323,0.00117,0.00000,0.00448,0.00000,,3.200329E-05,,,0
6195,03/05/2022 21:25:49.624,100907.894,1984.011,10,13,0.00345,3.87215,0.01334,0.00190,0.00000,0.00729,0.00000,,5.223902E-05,,0.02122449,
6233,03/05/2022 21:38:29.672,101667.942,2744.059,10,13,0.00345,3.91411,0.01348,0.00263,0.00000,0.01012,0.00000,,6.546737E-05,,,
6271,03/05/2022 21:51:09.717,102427.987,3504.104,10,13,0.00345,3.97199,0.01368,0.00335,0.00000,0.01299,0.00000,,8.000823E-05,,0.01159628,
6309,03/05/2022 22:02:09.955,103088.225,564.315,10,14,-0.00413,3.70839,-0.01533,0.00344,0.00065,0.01335,0.00243,,-0.0001101252,,,
6347,03/05/2022 22:14:49.981,103848.251,1324.340,10,14,-0.00413,3.63726,-0.01504,0.00344,0.00152,0.01335,0.00564,,-9.227306E-05,,,
6385,03/05/2022 22:27:30.012,104608.282,2084.372,10,14,-0.00413,3.54498,-0.01466,0.00344,0.00239,0.01335,0.00878,,-0.0001739838,,0.006491219,
6423,03/05/2022 22:37:50.817,105229.087,2705.177,10,14,-0.00413,3.24146,-0.01340,0.00344,0.00311,0.01335,0.01123,,-0.001114166,,0.001001237,1001.105
6461,03/05/2022 22:42:19.809,105498.079,2974.168,10,14,-0.00413,2.86120,-0.01183,0.00344,0.00341,0.01335,0.01218,,-0.002472747,,0.0004462761,2161.005
6499,03/05/2022 22:42:42.673,105520.943,0.795,11,13,0.00345,3.39684,0.01170,0.00000,0.00000,0.00000,0.00000,,,,,
6537,03/05/2022 22:42:49.521,105527.791,7.644,11,13,0.00345,3.79329,0.01307,0.00001,0.00000,0.00003,0.00000,,0.005972048,,0.0001269183,7608.126
6575,03/05/2022 22:54:34.165,106232.435,712.287,11,13,0.00345,3.82607,0.01318,0.00068,0.00000,0.00261,0.00000,,1.616156E-05,,,
6613,03/05/2022 23:07:14.211,106992.481,1472.333,11,13,0.00344,3.84904,0.01326,0.00141,0.00000,0.00540,0.00000,,4.026059E-05,,0.02617287,
6651,03/05/2022 23:19:54.248,107752.518,2232.370,11,13,0.00345,3.88201,0.01337,0.00214,0.00000,0.00821,0.00000,,5.026326E-05,,,50.0573
6689,03/05/2022 23:32:34.284,108512.554,2992.406,11,13,0.00345,3.92735,0.01353,0.00286,0.00000,0.01105,0.00000,,6.969547E-05,,,
6727,03/05/2022 23:43:27.136,109165.406,45.230,11,14,-0.00413,3.81006,-0.01575,0.00344,0.00005,0.01334,0.00020,,-0.0006051427,,0.001808368,669.3391
6765,03/05/2022 23:56:05.986,109924.256,804.080,11,14,-0.00413,3.68179,-0.01522,0.00344,0.00092,0.01334,0.00345,,-9.63182E-05,,,
6803,03/06/2022 00:08:46.020,110684.290,1564.114,11,14,-0.00413,3.61290,-0.01494,0.00344,0.00180,0.01334,0.00663,,-0.0001009666,,,
6841,03/06/2022 00:21:26.052,111444.322,2324.146,11,14,-0.00413,3.49139,-0.01443,0.00344,0.00267,0.01334,0.00974,,-0.000304634,,0.004050509,241.787
6879,03/06/2022 00:29:42.652,111940.922,2820.747,11,14,-0.00413,3.12846,-0.01293,0.00344,0.00324,0.01334,0.01165,,-0.001036459,,0.001110181,867.6101
6917,03/06/2022 00:32:43.372,112121.642,0.049,12,16,0.00344,3.12091,0.01075,0.00000,0.00000,0.00000,0.00000,,,,,
6955,03/06/2022 00:32:44.730,112123.000,1.407,12,16,0.00344,3.53452,0.01218,0.00000,0.00000,0.00000,0.00000,,,,,
6993,03/06/2022 00:36:11.957,112330.227,208.634,12,16,0.00345,3.82642,0.01318,0.00020,0.00000,0.00076,0.00000,,-7.397112E-05,,,
7031,03/06/2022 00:48:52.002,113090.272,968.679,12,16,0.00345,3.82966,0.01319,0.00093,0.00000,0.00354,0.00000,,3.401803E-05,,0,
7069,03/06/2022 01:01:32.043,113850.313,1728.720,12,16,0.00344,3.85676,0.01329,0.00165,0.00000,0.00634,0.00000,,2.734425E-05,,,
7107,03/06/2022 01:14:12.094,114610.364,2488.771,12,16,0.00344,3.89262,0.01341,0.00238,0.00000,0.00916,0.00000,,5.278567E-05,,,
7145,03/06/2022 01:26:52.132,115370.402,3248.809,12,16,0.00344,3.94245,0.01358,0.00311,0.00000,0.01200,0.00000,,6.986336E-05,,,
7183,03/06/2022 01:37:31.592,116009.862,288.153,12,17,-0.00517,3.70512,-0.01914,0.00344,0.00041,0.01333,0.00155,,-0.0001922384,,0.007214701,143.4958
7221,03/06/2022 01:50:11.617,116769.887,1048.179,12,17,-0.00517,3.60656,-0.01863,0.00344,0.00150,0.01333,0.00553,,-0.0001144101,,0.01157891,84.98145
7259,03/06/2022 02:02:51.655,117529.925,1808.216,12,17,-0.00516,3.45241,-0.01783,0.00344,0.00259,0.01333,0.00940,,-0.0004299879,,0.003628169,272.3239
7297,03/06/2022 02:09:05.975,117904.245,2182.536,12,17,-0.00517,3.07408,-0.01590,0.00344,0.00313,0.01333,0.01117,,-0.001635026,,0.0008680762,1169.362
7335,03/06/2022 02:11:09.248,118027.518,0.182,13,16,0.00344,3.25956,0.01123,0.00000,0.00000,0.00000,0.00000,,,,,
7373,03/06/2022 02:11:11.089,118029.359,2.023,13,16,0.00345,3.66661,0.01263,0.00000,0.00000,0.00001,0.00000,,0.1015422,,9.367664E-06,106750.2
7411,03/06/2022 02:19:01.981,118500.251,472.915,13,16,0.00345,3.82138,0.01316,0.00045,0.00000,0.00173,0.00000,,-2.212518E-06,,,
7449,03/06/2022 02:31:42.029,119260.299,1232.963,13,16,0.00344,3.84080,0.01323,0.00118,0.00000,0.00451,0.00000,,3.366718E-05,,,0
7487,03/06/2022 02:44:22.073,120020.343,1993.007,13,16,0.00345,3.87245,0.01334,0.00191,0.00000,0.00732,0.00000,,5.021792E-05,,,0
7525,03/06/2022 02:57:02.118,120780.388,2753.052,13,16,0.00344,3.91439,0.01349,0.00263,0.00000,0.01015,0.00000,,6.006302E-05,,0.01524522,0
7563,03/06/2022 03:09:42.160,121540.430,3513.094,13,16,0.00345,3.97211,0.01368,0.00336,0.00000,0.01302,0.00000,,9.137423E-05,,,
7601,03/06/2022 03:20:18.045,122176.315,548.867,13,17,-0.00516,3.67195,-0.01896,0.00344,0.00079,0.01335,0.00293,,-0.0001399766,,,
7639,03/06/2022 03:32:58.076,122936.346,1308.898,13,17,-0.00516,3.58068,-0.01849,0.00344,0.00188,0.01335,0.00689,,-0.000145137,,0.01046741,
7677,03/06/2022 03:44:35.531,123633.801,2006.353,13,17,-0.00516,3.33486,-0.01722,0.00344,0.00288,0.01335,0.01039,,-0.0008123757,,0.001711824,592.8599
7715,03/06/2022 03:50:21.891,123980.161,2352.713,13,17,-0.00516,2.95460,-0.01526,0.00344,0.00337,0.01335,0.01197,,-0.002224316,,0.0006393095,1552.666
7753,03/06/2022 03:51:17.269,124035.539,0.509,14,16,0.00344,3.37880,0.01164,0.00000,0.00000,0.00000,0.00000,,,,,
7791,03/06/2022 03:51:22.696,124040.966,5.935,14,16,0.00345,3.77489,0.01300,0.00001,0.00000,0.00002,0.00000,,0.008301302,,0.000106558,11887.08
7829,03/06/2022 04:02:50.459,124728.729,693.699,14,16,0.00345,3.82381,0.01317,0.00066,0.00000,0.00254,0.00000,,2.327403E-05,,,
7867,03/06/2022 04:15:30.504,125488.774,1453.744,14,16,0.00345,3.84823,0.01326,0.00139,0.00000,0.00533,0.00000,,4.867661E-05,,,
7905,03/06/2022 04:28:10.547,126248.817,2213.787,14,16,0.00345,3.88197,0.01337,0.00212,0.00000,0.00814,0.00000,,6.32627E-05,,,
7943,03/06/2022 04:40:50.597,127008.867,2973.837,14,16,0.00345,3.92715,0.01353,0.00285,0.00000,0.01097,0.00000,,6.681126E-05,,,
7981,03/06/2022 04:51:42.395,127660.665,25.521,14,17,-0.00516,3.80576,-0.01966,0.00344,0.00004,0.01334,0.00014,,-0.0009944232,,0.001346356,893.1819
8019,03/06/2022 05:04:03.378,128401.648,766.504,14,17,-0.00516,3.64015,-0.01880,0.00344,0.00110,0.01334,0.00407,,-0.000109535,,0.01217623,81.62436
8057,03/06/2022 05:16:43.409,129161.679,1526.535,14,17,-0.00516,3.52560,-0.01821,0.00344,0.00219,0.01334,0.00798,,-0.0002492742,,0.006473193,
8095,03/06/2022 05:27:51.774,129830.044,2194.900,14,17,-0.00517,3.18534,-0.01647,0.00344,0.00315,0.01334,0.01123,,-0.0008928882,,0.001661981,587.7032
8133,03/06/2022 05:31:24.529,130042.799,2407.655,14,17,-0.00516,2.80505,-0.01449,0.00344,0.00345,0.01334,0.01216,,-0.003613096,,0.0004012801,2446.264
8171,03/06/2022 05:31:27.246,130045.516,1.200,15,19,0.00345,3.55032,0.01223,0.00000,0.00000,0.00000,0.00000,,,,,
8209,03/06/2022 05:35:40.357,130298.627,254.312,15,19,0.00345,3.82507,0.01318,0.00024,0.00000,0.00093,0.00000,,-5.243312E-05,,,
8247,03/06/2022 05:48:20.397,131058.667,1014.352,15,19,0.00345,3.83267,0.01320,0.00097,0.00000,0.00371,0.00000,,3.875922E-05,,,
8285,03/06/2022 06:01:00.438,131818.708,1774.393,15,19,0.00345,3.86147,0.01330,0.00170,0.00000,0.00651,0.00000,,3.781537E-05,,,
8323,03/06/2022 06:13:40.480,132578.750,2534.435,15,19,0.00345,3.89859,0.01343,0.00242,0.00000,0.00933,0.00000,,5.258812E-05,,,
8361,03/06/2022 06:26:20.521,133338.791,3294.475,15,19,0.00345,3.94943,0.01361,0.00315,0.00000,0.01218,0.00000,,7.693535E-05,,,
8399,03/06/2022 06:36:25.305,133943.575,299.145,15,20,-0.00620,3.66305,-0.02273,0.00344,0.00052,0.01334,0.00191,,-0.0002230313,,0.007548573,137.3923
8437,03/06/2022 06:49:05.338,134703.608,1059.178,15,20,-0.00620,3.51517,-0.02181,0.00344,0.00182,0.01334,0.00662,,-0.0002571426,,0.006701646,
8475,03/06/2022 07:00:07.145,135365.415,1720.984,15,20,-0.00620,3.17115,-0.01967,0.00344,0.00296,0.01334,0.01047,,-0.001009843,,0.001803504,543.3464
8513,03/06/2022 07:03:30.762,135569.032,1924.602,15,20,-0.00620,2.79997,-0.01737,0.00344,0.00332,0.01334,0.01153,,-0.003795875,0,0.0004642006,2142.441
8551,03/06/2022 07:03:32.228,135570.498,1.351,16,19,0.00344,3.62243,0.01248,0.00000,0.00000,0.00000,0.00000,,,,,
8589,03/06/2022 07:09:56.171,135954.441,385.294,16,19,0.00345,3.82764,0.01319,0.00037,0.00000,0.00141,0.00000,,-2.552382E-05,,,
8627,03/06/2022 07:22:36.212,136714.482,1145.335,16,19,0.00344,3.84258,0.01324,0.00110,0.00000,0.00420,0.00000,,2.718282E-05,,0,0
8665,03/06/2022 07:35:16.253,137474.523,1905.376,16,19,0.00344,3.87359,0.01334,0.00182,0.00000,0.00700,0.00000,,4.967054E-05,,0.02107412,0
8703,03/06/2022 07:47:56.298,138234.568,2665.420,16,19,0.00344,3.91393,0.01348,0.00255,0.00000,0.00983,0.00000,,6.005556E-05,,0.01563632,
8741,03/06/2022 08:00:36.340,138994.610,3425.463,16,19,0.00344,3.96996,0.01368,0.00328,0.00000,0.01270,0.00000,,7.984952E-05,,0.01170228,
8779,03/06/2022 08:10:48.628,139606.898,437.639,16,20,-0.00620,3.63582,-0.02256,0.00344,0.00075,0.01336,0.00279,,-0.0001845666,,0.008587148,
8817,03/06/2022 08:23:28.660,140366.930,1197.672,16,20,-0.00620,3.43127,-0.02129,0.00344,0.00206,0.01336,0.00743,,-0.0003714492,,0.004763653,212.0698
8855,03/06/2022 08:34:14.453,141012.723,1843.465,16,20,-0.00620,3.09954,-0.01923,0.00344,0.00318,0.01336,0.01111,,-0.001136312,,0.001501553,659.8576
8893,03/06/2022 08:36:41.241,141159.511,0.129,17,19,0.00344,3.29767,0.01136,0.00000,0.00000,0.00000,0.00000,,,,,
8931,03/06/2022 08:36:43.088,141161.358,1.975,17,19,0.00344,3.70640,0.01277,0.00000,0.00000,0.00001,0.00000,,0.08131601,,1.139146E-05,85351.69
8969,03/06/2022 08:45:27.933,141686.203,526.821,17,19,0.00345,3.83075,0.01320,0.00050,0.00000,0.00193,0.00000,,-4.10903E-06,,,
9007,03/06/2022 08:58:07.976,142446.246,1286.864,17,19,0.00344,3.85036,0.01326,0.00123,0.00000,0.00473,0.00000,,3.979175E-05,,,
9045,03/06/2022 09:10:48.014,143206.284,2046.902,17,19,0.00344,3.88248,0.01338,0.00196,0.00000,0.00754,0.00000,,6.357249E-05,,,
9083,03/06/2022 09:23:28.061,143966.331,2806.948,17,19,0.00344,3.92548,0.01352,0.00269,0.00000,0.01037,0.00000,,6.792598E-05,,,66.42022
9121,03/06/2022 09:36:08.106,144726.376,3566.993,17,19,0.00345,3.98337,0.01372,0.00341,0.00000,0.01325,0.00000,,8.88242E-05,,0.01144544,
9159,03/06/2022 09:46:14.466,145332.736,573.242,17,20,-0.00620,3.59639,-0.02229,0.00344,0.00099,0.01338,0.00363,,-0.0002422396,,0.007445591,131.7633
9197,03/06/2022 09:58:54.495,146092.765,1333.271,17,20,-0.00620,3.34903,-0.02078,0.00344,0.00230,0.01338,0.00817,,-0.0002974297,,0.005750238,172.2907
9235,03/06/2022 10:08:15.468,146653.738,1894.243,17,20,-0.00620,3.00136,-0.01862,0.00344,0.00326,0.01338,0.01129,,-0.001606282,,0.001023037,836.8738
9273,03/06/2022 10:09:43.843,146742.113,0.336,18,22,0.00344,3.42954,0.01181,0.00000,0.00000,0.00000,0.00000,,,,,
9311,03/06/2022 10:09:57.321,146755.591,13.814,18,22,0.00345,3.82671,0.01318,0.00001,0.00000,0.00005,0.00000,,0.002323395,,0.0003572406,3421.801
9349,03/06/2022 10:21:56.965,147475.235,733.458,18,22,0.00344,3.84022,0.01323,0.00070,0.00000,0.00270,0.00000,,1.047143E-05,,,
9387,03/06/2022 10:34:37.010,148235.280,1493.503,18,22,0.00344,3.86341,0.01331,0.00143,0.00000,0.00550,0.00000,,4.749091E-05,,0.02550101,
9425,03/06/2022 10:47:17.049,148995.319,2253.542,18,22,0.00345,3.89755,0.01343,0.00216,0.00000,0.00832,0.00000,,4.931531E-05,,,
9463,03/06/2022 10:59:57.090,149755.360,3013.583,18,22,0.00345,3.94434,0.01359,0.00288,0.00000,0.01117,0.00000,,8.083861E-05,,0.01347756,
9501,03/06/2022 11:10:14.030,150372.300,30.410,18,23,-0.00724,3.75848,-0.02719,0.00344,0.00006,0.01340,0.00023,,-0.001231743,,0.001610222,696.4149
9539,03/06/2022 11:21:29.484,151047.754,705.865,18,23,-0.00724,3.43250,-0.02484,0.00344,0.00142,0.01340,0.00510,,-0.000668807,,0.003130462,316.267
9577,03/06/2022 11:33:14.849,151753.119,1411.230,18,23,-0.00724,3.10318,-0.02245,0.00344,0.00284,0.01340,0.00974,,-0.000817986,,0.002471109,404.097
9615,03/06/2022 11:36:35.308,151953.578,0.135,19,22,0.00344,3.40053,0.01171,0.00000,0.00000,0.00000,0.00000,,,,,
9653,03/06/2022 11:36:42.637,151960.907,7.465,19,22,0.00345,3.80685,0.01311,0.00001,0.00000,0.00003,0.00000,,0.004788772,,0.000184887,6026.594
9691,03/06/2022 11:47:51.689,152629.959,676.517,19,22,0.00345,3.85418,0.01328,0.00065,0.00000,0.00250,0.00000,,1.035305E-05,,,
9729,03/06/2022 12:00:31.741,153390.011,1436.568,19,22,0.00344,3.87577,0.01335,0.00137,0.00000,0.00531,0.00000,,3.62707E-05,,,
9767,03/06/2022 12:13:11.781,154150.051,2196.608,19,22,0.00345,3.91072,0.01347,0.00210,0.00000,0.00814,0.00000,,5.468896E-05,,,0
9805,03/06/2022 12:25:51.822,154910.092,2956.649,19,22,0.00344,3.95884,0.01364,0.00283,0.00000,0.01100,0.00000,,7.048567E-05,,,
9843,03/06/2022 12:36:45.448,155563.718,10.161,19,23,-0.00724,3.80192,-0.02751,0.00344,0.00002,0.01345,0.00008,,-0.002211512,,0.0009202295,1338.741
9881,03/06/2022 12:47:27.034,156205.304,651.747,19,23,-0.00724,3.47599,-0.02515,0.00344,0.00131,0.01345,0.00473,,-0.0005568602,,0.003969858,246.4748
9919,03/06/2022 12:59:46.945,156945.215,1391.659,19,23,-0.00724,3.16124,-0.02287,0.00344,0.00280,0.01345,0.00965,,-0.0006045747,,0.003460001,272.1931
9957,03/06/2022 13:04:32.044,157230.314,0.002,20,24,-0.00724,2.79999,-0.02026,0.00000,0.00000,0.00000,0.00000,,-0.00298808,0,0.0007127864,1440.041
9995,03/06/2022 13:04:33.890,157232.160,1.740,20,22,0.00344,3.72700,0.01284,0.00000,0.00000,0.00001,0.00000,,,,,
10033,03/06/2022 13:13:09.971,157748.241,517.820,20,22,0.00345,3.86705,0.01332,0.00050,0.00000,0.00192,0.00000,,-1.69115E-05,,,
10071,03/06/2022 13:25:50.021,158508.291,1277.871,20,22,0.00345,3.87898,0.01336,0.00122,0.00000,0.00473,0.00000,,3.461068E-05,,,
10109,03/06/2022 13:38:30.056,159268.326,2037.905,20,22,0.00344,3.91167,0.01348,0.00195,0.00000,0.00757,0.00000,,5.180436E-05,,0.02003761,
10147,03/06/2022 13:51:10.100,160028.370,2797.949,20,22,0.00345,3.95771,0.01363,0.00268,0.00000,0.01043,0.00000,,7.29748E-05,,,72.74893
10185,03/06/2022 14:03:50.141,160788.411,3557.990,20,22,0.00345,4.01948,0.01385,0.00340,0.00000,0.01332,0.00000,,8.344809E-05,,,
10223,03/06/2022 14:12:28.617,161306.887,476.355,20,23,-0.00724,3.54322,-0.02564,0.00344,0.00096,0.01349,0.00348,,-0.0002822517,,0.007058658,143.2048
10261,03/06/2022 14:25:08.651,162066.921,1236.388,20,23,-0.00724,3.25718,-0.02357,0.00344,0.00248,0.01349,0.00868,,-0.0003879608,,0.005180846,190.9087
10299,03/06/2022 14:32:01.393,162479.663,1649.130,20,23,-0.00724,2.88290,-0.02086,0.00344,0.00331,0.01349,0.01128,,-0.002316314,,0.0008396612,1185.666
10337,03/06/2022 14:32:32.214,162510.484,0.830,21,25,0.00345,3.59096,0.01237,0.00000,0.00000,0.00000,0.00000,,,,,
10375,03/06/2022 14:37:28.773,162807.043,297.389,21,25,0.00345,3.88516,0.01338,0.00028,0.00000,0.00110,0.00000,,-5.310131E-05,,,
10413,03/06/2022 14:50:08.816,163567.086,1057.432,21,25,0.00344,3.88061,0.01337,0.00101,0.00000,0.00392,0.00000,,1.15764E-05,,,
10451,03/06/2022 15:02:48.861,164327.131,1817.476,21,25,0.00345,3.90944,0.01347,0.00174,0.00000,0.00675,0.00000,,3.560315E-05,,,46.57008
10489,03/06/2022 15:15:28.902,165087.172,2577.518,21,25,0.00344,3.95209,0.01361,0.00247,0.00000,0.00961,0.00000,,6.101139E-05,,,
10527,03/06/2022 15:28:08.943,165847.213,3337.559,21,25,0.00345,4.00942,0.01381,0.00319,0.00000,0.01250,0.00000,,8.250763E-05,,,86.63767
10565,03/06/2022 15:35:43.320,166301.590,191.822,21,26,-0.00827,3.59487,-0.02972,0.00344,0.00044,0.01351,0.00162,,-0.0006479435,,0.003491918,288.8152
10603,03/06/2022 15:48:15.959,167054.229,944.461,21,26,-0.00827,3.28403,-0.02715,0.00344,0.00217,0.01351,0.00756,,-0.0004864303,,0.004588616,212.9571
10641,03/06/2022 15:55:05.985,167464.255,1354.487,21,26,-0.00827,2.90379,-0.02401,0.00344,0.00311,0.01351,0.01052,,-0.002133584,,0.001068991,892.8052
10679,03/06/2022 15:55:46.369,167504.639,0.735,22,25,0.00344,3.54985,0.01223,0.00000,0.00000,0.00000,0.00000,,,,,
10717,03/06/2022 16:00:30.600,167788.870,284.966,22,25,0.00345,3.87997,0.01337,0.00027,0.00000,0.00105,0.00000,,7.056937E-05,,,
10755,03/06/2022 16:13:10.642,168548.912,1045.008,22,25,0.00345,3.89236,0.01341,0.00100,0.00000,0.00387,0.00000,,3.572169E-05,,,15.42098
10793,03/06/2022 16:25:50.688,169308.958,1805.054,22,25,0.00344,3.92430,0.01352,0.00173,0.00000,0.00671,0.00000,,5.432612E-05,,,
10831,03/06/2022 16:38:30.726,170068.996,2565.092,22,25,0.00344,3.97084,0.01368,0.00245,0.00000,0.00958,0.00000,,6.433066E-05,,,
10869,03/06/2022 16:51:10.768,170829.038,3325.134,22,25,0.00345,4.03273,0.01389,0.00318,0.00000,0.01249,0.00000,,9.769783E-05,,,90.18723
10907,03/06/2022 16:58:50.338,171288.608,184.591,22,26,-0.00827,3.61033,-0.02985,0.00344,0.00042,0.01356,0.00157,,-0.0007136437,,0.003313145,309.0182
10945,03/06/2022 17:11:16.852,172035.122,931.104,22,26,-0.00827,3.33581,-0.02758,0.00344,0.00214,0.01356,0.00750,,-0.0003934403,,0.005883547,
10983,03/06/2022 17:19:00.873,172499.143,1395.126,22,26,-0.00827,2.96144,-0.02448,0.00344,0.00320,0.01356,0.01090,,-0.001925279,,0.001244205,798.7756
11021,03/06/2022 17:20:05.379,172563.649,0.417,23,25,0.00344,3.43734,0.01184,0.00000,0.00000,0.00000,0.00000,,,,,
11059,03/06/2022 17:21:53.264,172671.534,108.302,23,25,0.00344,3.82457,0.01318,0.00010,0.00000,0.00039,0.00000,,0.0005159179,,0.001674759,648.8403
11097,03/06/2022 17:34:33.306,173431.576,868.344,23,25,0.00344,3.88867,0.01340,0.00083,0.00000,0.00321,0.00000,,3.975191E-05,,,
11135,03/06/2022 17:47:13.351,174191.621,1628.389,23,25,0.00344,3.92046,0.01351,0.00156,0.00000,0.00605,0.00000,,4.176197E-05,,,
11173,03/06/2022 17:59:53.400,174951.670,2388.439,23,25,0.00345,3.96585,0.01366,0.00229,0.00000,0.00891,0.00000,,7.543379E-05,,,
11211,03/06/2022 18:12:33.448,175711.718,3148.486,23,25,0.00345,4.02699,0.01387,0.00301,0.00000,0.01182,0.00000,,9.379149E-05,,,
11249,03/06/2022 18:21:20.464,176238.734,75.389,23,26,-0.00827,3.70368,-0.03062,0.00344,0.00017,0.01357,0.00065,,-0.001109086,,0.00213738,486.9523
11287,03/06/2022 18:32:28.107,176906.377,743.032,23,26,-0.00827,3.40134,-0.02812,0.00344,0.00171,0.01357,0.00604,,-0.0002821443,,0.007741163,
11325,03/06/2022 18:42:21.086,177499.356,1336.011,23,26,-0.00827,3.06226,-0.02532,0.00344,0.00307,0.01357,0.01050,,-0.001329668,,0.001731656,553.9575
11363,03/06/2022 18:44:23.797,177622.067,0.165,24,28,0.00344,3.29702,0.01136,0.00000,0.00000,0.00000,0.00000,,,,,
11401,03/06/2022 18:44:38.711,177636.981,15.078,24,28,0.00344,3.69712,0.01274,0.00001,0.00000,0.00005,0.00000,,0.003430902,,0.0002665455,4057.657
11439,03/06/2022 18:55:04.816,178263.086,641.184,24,28,0.00344,3.87990,0.01337,0.00061,0.00000,0.00236,0.00000,,4.417501E-05,,0.0227538,
11477,03/06/2022 19:07:44.864,179023.134,1401.232,24,28,0.00344,3.91230,0.01348,0.00134,0.00000,0.00519,0.00000,,5.314743E-05,,,50.3931
11515,03/06/2022 19:20:24.910,179783.180,2161.278,24,28,0.00344,3.95602,0.01363,0.00207,0.00000,0.00805,0.00000,,6.546846E-05,,,
11553,03/06/2022 19:33:04.949,180543.219,2921.316,24,28,0.00345,4.01510,0.01383,0.00279,0.00000,0.01095,0.00000,,8.782886E-05,,0.01098563,
11591,03/06/2022 19:44:27.169,181225.439,3.424,24,29,-0.00930,3.80013,-0.03536,0.00344,0.00001,0.01357,0.00003,,-0.004519195,,0.0004804072,2357.588
11629,03/06/2022 19:51:13.181,181631.451,409.436,24,29,-0.00930,3.42112,-0.03183,0.00344,0.00106,0.01357,0.00377,,-0.0004852006,,0.005686118,181.0424
11667,03/06/2022 20:01:09.943,182228.213,1006.199,24,29,-0.00930,3.06450,-0.02851,0.00344,0.00260,0.01357,0.00883,,-0.001276312,,0.001994327,485.5519
11705,03/06/2022 20:03:11.373,182349.643,0.174,25,28,0.00344,3.33105,0.01148,0.00000,0.00000,0.00000,0.00000,,,,,
11743,03/06/2022 20:03:43.641,182381.911,32.442,25,28,0.00345,3.72686,0.01284,0.00003,0.00000,0.00011,0.00000,,0.002223655,,0.0004180015,2605.408
11781,03/06/2022 20:14:52.000,183050.270,700.802,25,28,0.00345,3.88989,0.01340,0.00067,0.00000,0.00258,0.00000,,5.263374E-05,,,0
11819,03/06/2022 20:27:32.040,183810.310,1460.841,25,28,0.00344,3.93870,0.01357,0.00140,0.00000,0.00543,0.00000,,6.417206E-05,,,
11857,03/06/2022 20:40:12.090,184570.360,2220.891,25,28,0.00344,3.99799,0.01377,0.00212,0.00000,0.00831,0.00000,,8.775029E-05,,,
11895,03/06/2022 20:52:52.138,185330.408,2980.939,25,28,0.00344,4.06690,0.01401,0.00285,0.00000,0.01124,0.00000,,8.898801E-05,,0.01079349,
11933,03/06/2022 21:03:25.039,185963.309,13.728,25,29,-0.00930,3.81342,-0.03548,0.00344,0.00004,0.01367,0.00014,,-0.002427784,,0.000993201,1040.679
11971,03/06/2022 21:10:28.919,186387.189,437.608,25,29,-0.00930,3.43321,-0.03194,0.00344,0.00113,0.01367,0.00406,,-0.000463891,,0.005179841,197.0289
12009,03/06/2022 21:20:39.986,186998.256,1048.675,25,29,-0.00930,3.07475,-0.02861,0.00344,0.00271,0.01367,0.00925,,-0.001361956,,0.002006448,493.2336
12047,03/06/2022 21:22:40.469,187118.739,0.152,26,28,0.00344,3.32135,0.01144,0.00000,0.00000,0.00000,0.00000,,,,,
12085,03/06/2022 21:23:10.031,187148.301,29.714,26,28,0.00345,3.72102,0.01282,0.00003,0.00000,0.00010,0.00000,,0.002684853,,0.0003508381,3050.487
12123,03/06/2022 21:33:54.656,187792.926,674.339,26,28,0.00345,3.90169,0.01344,0.00065,0.00000,0.00249,0.00000,,7.534914E-05,,,
12161,03/06/2022 21:46:34.701,188552.971,1434.384,26,28,0.00345,3.96419,0.01366,0.00137,0.00000,0.00535,0.00000,,8.390751E-05,,,
12199,03/06/2022 21:59:14.741,189313.011,2194.424,26,28,0.00344,4.03386,0.01390,0.00210,0.00000,0.00825,0.00000,,9.646982E-05,,,
12237,03/06/2022 22:11:54.783,190073.053,2954.466,26,28,0.00344,4.10347,0.01414,0.00283,0.00000,0.01121,0.00000,,8.775435E-05,,,
12275,03/06/2022 22:22:46.137,190724.407,5.706,26,29,-0.00930,3.86497,-0.03596,0.00344,0.00001,0.01376,0.00006,,-0.003787658,,0.0006305804,1707.196
12313,03/06/2022 22:28:49.071,191087.341,368.640,26,29,-0.00930,3.48471,-0.03242,0.00344,0.00095,0.01376,0.00347,,-0.0006377557,,0.003842328,262.3233
12351,03/06/2022 22:39:19.486,191717.756,999.056,26,29,-0.00930,3.11004,-0.02894,0.00344,0.00258,0.01376,0.00887,,-0.001086526,,0.002391362,402.3833
12389,03/06/2022 22:41:45.237,191863.507,0.095,27,31,0.00344,3.30030,0.01137,0.00000,0.00000,0.00000,0.00000,,,,,
12427,03/06/2022 22:42:08.270,191886.540,23.128,27,31,0.00344,3.70751,0.01277,0.00002,0.00000,0.00008,0.00000,,0.003353944,,0.0002785835,3671.25
12465,03/06/2022 22:52:02.966,192481.236,617.824,27,31,0.00345,3.91957,0.01350,0.00059,0.00000,0.00229,0.00000,,0.0001013399,,,
12503,03/06/2022 23:04:43.006,193241.276,1377.864,27,31,0.00345,3.99926,0.01378,0.00132,0.00000,0.00516,0.00000,,0.0001013409,,,
12541,03/06/2022 23:17:23.052,194001.322,2137.910,27,31,0.00344,4.07503,0.01404,0.00205,0.00000,0.00810,0.00000,,0.0001051278,,,
12579,03/06/2022 23:30:03.093,194761.363,2897.951,27,31,0.00345,4.14191,0.01427,0.00277,0.00000,0.01109,0.00000,,8.398689E-05,,0.01130403,
12617,03/06/2022 23:41:45.526,195463.796,0.271,27,32,-0.01033,3.91270,-0.04043,0.00344,0.00000,0.01389,0.00000,,,,,
12655,03/06/2022 23:45:40.721,195698.991,235.466,27,32,-0.01034,3.53248,-0.03651,0.00344,0.00068,0.01389,0.00249,,-0.001176288,,0.00245915,405.3882
12693,03/06/2022 23:52:08.174,196086.444,622.919,27,32,-0.01034,3.15229,-0.03258,0.00344,0.00179,0.01389,0.00620,,-0.001058985,,0.002832338,349.7919
12731,03/06/2022 23:55:04.845,196263.115,0.005,28,31,0.00000,3.23849,0.00000,0.00000,0.00000,0.00000,0.00000,,0.8108801,,,
12769,03/06/2022 23:55:28.654,196286.924,23.815,28,31,0.00345,3.73271,0.01286,0.00002,0.00000,0.00008,0.00000,,0.004048735,,0.0002378922,4331.638
12807,03/07/2022 00:04:41.203,196839.473,576.364,28,31,0.00345,4.00544,0.01380,0.00055,0.00000,0.00216,0.00000,,0.0001870124,,,
12845,03/07/2022 00:17:21.244,197599.514,1336.404,28,31,0.00345,4.10387,0.01414,0.00128,0.00000,0.00511,0.00000,,9.715425E-05,,,
12883,03/07/2022 00:30:01.289,198359.559,2096.449,28,31,0.00344,4.17260,0.01437,0.00201,0.00000,0.00812,0.00000,,9.750557E-05,,0.01056861,
12921,03/07/2022 00:42:41.328,199119.598,2856.489,28,31,0.00345,4.24669,0.01463,0.00273,0.00000,0.01118,0.00000,,0.0001005479,,0.009577316,
12959,03/07/2022 00:55:04.841,199863.111,3600.002,28,31,0.00345,4.30865,0.01484,0.00344,0.00000,0.01423,0.00000,,7.428724E-05,0,0.01343905,77.63691
12997,03/07/2022 00:58:45.169,200083.439,220.219,28,32,-0.01034,3.63634,-0.03758,0.00344,0.00063,0.01423,0.00239,,-0.001268932,,0.002268541,440.1593
13035,03/07/2022 01:04:33.529,200431.799,568.579,28,32,-0.01034,3.25614,-0.03365,0.00344,0.00163,0.01423,0.00583,,-0.001035356,,0.002900496,339.7994
13073,03/07/2022 01:08:40.057,200678.327,815.106,28,32,-0.01034,2.87577,-0.02972,0.00344,0.00234,0.01423,0.00803,,-0.003417161,,0.000830986,1169.919
13111,03/07/2022 01:09:05.835,200704.105,7.465,29,31,0.00345,3.66211,0.01262,0.00001,0.00000,0.00003,0.00000,,0.009140479,,0.0001033751,10186.3
13149,03/07/2022 01:14:20.523,201018.793,322.153,29,31,0.00345,4.03247,0.01389,0.00031,0.00000,0.00121,0.00000,,0.0003650416,,0.002567381,403.6173
13187,03/07/2022 01:27:00.560,201778.830,1082.190,29,31,0.00345,4.16476,0.01435,0.00104,0.00000,0.00420,0.00000,,0.0001043587,,,
13225,03/07/2022 01:39:40.605,202538.875,1842.235,29,31,0.00345,4.24644,0.01463,0.00176,0.00000,0.00726,0.00000,,0.0001070183,,,
13263,03/07/2022 01:52:20.645,203298.915,2602.275,29,31,0.00344,4.31344,0.01486,0.00249,0.00000,0.01037,0.00000,,7.239175E-05,,,
13301,03/07/2022 02:05:00.685,204058.955,3362.315,29,31,0.00345,4.36990,0.01505,0.00322,0.00000,0.01353,0.00000,,0.0001002404,,,93.5668
13339,03/07/2022 02:10:39.689,204397.959,101.204,29,32,-0.01034,3.79825,-0.03926,0.00344,0.00029,0.01453,0.00113,,-0.001479615,,0.001864229,527.7111
13377,03/07/2022 02:16:36.655,204754.925,458.170,29,32,-0.01034,3.41800,-0.03533,0.00344,0.00132,0.01453,0.00480,,-0.000915357,,0.003016046,324.7052
13415,03/07/2022 02:22:08.365,205086.635,789.880,29,32,-0.01034,3.03769,-0.03140,0.00344,0.00227,0.01453,0.00789,,-0.001833923,,0.00160199,603.8948
13453,03/07/2022 02:23:31.985,205170.255,0.480,30,34,0.00103,3.45070,0.00357,0.00000,0.00000,0.00000,0.00000,,,,,
13491,03/07/2022 02:24:55.749,205254.019,84.244,30,34,0.00103,3.83199,0.00396,0.00002,0.00000,0.00009,0.00000,,0.001334329,,0.0002071897,5116.056
13529,03/07/2022 02:36:15.506,205933.776,764.002,30,34,0.00103,4.05557,0.00419,0.00022,0.00000,0.00087,0.00000,,7.112608E-05,,,307.6282
13567,03/07/2022 02:48:55.545,206693.815,1524.040,30,34,0.00103,4.08904,0.00423,0.00044,0.00000,0.00176,0.00000,,3.990997E-05,,,0
13605,03/07/2022 03:01:35.590,207453.860,2284.086,30,34,0.00103,4.11324,0.00425,0.00066,0.00000,0.00265,0.00000,,3.074253E-05,,0.009030074,
13643,03/07/2022 03:14:15.634,208213.904,3044.129,30,34,0.00103,4.13814,0.00428,0.00087,0.00000,0.00355,0.00000,,1.912295E-05,,,
13681,03/07/2022 03:25:54.813,208913.083,143.280,30,35,-0.00103,4.07290,-0.00421,0.00103,0.00004,0.00421,0.00017,,-0.0001264492,,0.001945234,
13719,03/07/2022 03:38:34.862,209673.132,903.329,30,35,-0.00103,4.03001,-0.00416,0.00103,0.00026,0.00421,0.00105,,-4.361966E-05,,0.007485738,138.2811
13757,03/07/2022 03:51:14.902,210433.172,1663.370,30,35,-0.00103,4.00482,-0.00414,0.00103,0.00048,0.00421,0.00193,,-2.884582E-05,,0.009264355,
13795,03/07/2022 04:03:54.944,211193.214,2423.412,30,35,-0.00103,3.98332,-0.00412,0.00103,0.00070,0.00421,0.00280,,-4.223574E-05,,,
13833,03/07/2022 04:16:34.988,211953.258,3183.455,30,35,-0.00103,3.96404,-0.00410,0.00103,0.00091,0.00421,0.00366,,-1.766342E-05,,,0
13871,03/07/2022 04:27:57.359,212635.629,265.790,31,34,0.00103,4.04732,0.00418,0.00008,0.00000,0.00031,0.00000,,7.009929E-05,,0.003625584,
13909,03/07/2022 04:40:37.406,213395.676,1025.837,31,34,0.00103,4.07615,0.00421,0.00029,0.00000,0.00119,0.00000,,1.477658E-05,,,
13947,03/07/2022 04:53:17.440,214155.710,1785.871,31,34,0.00103,4.09738,0.00423,0.00051,0.00000,0.00209,0.00000,,3.556333E-05,,,
13985,03/07/2022 05:05:57.486,214915.756,2545.917,31,34,0.00103,4.12011,0.00426,0.00073,0.00000,0.00298,0.00000,,2.204653E-05,,0,
14023,03/07/2022 05:18:37.530,215675.800,3305.961,31,34,0.00103,4.14426,0.00428,0.00095,0.00000,0.00388,0.00000,,3.477304E-05,,,
14061,03/07/2022 05:30:18.189,216376.459,406.594,31,35,-0.00103,4.04894,-0.00418,0.00103,0.00012,0.00423,0.00047,,-6.322528E-05,,,0
14099,03/07/2022 05:42:58.232,217136.502,1166.637,31,35,-0.00103,4.01766,-0.00415,0.00103,0.00033,0.00423,0.00135,,-2.726229E-05,,0.008203194,124.5245
14137,03/07/2022 05:55:38.275,217896.545,1926.680,31,35,-0.00103,3.99410,-0.00413,0.00103,0.00055,0.00423,0.00223,,-3.773697E-05,,0,0
14175,03/07/2022 06:08:18.325,218656.595,2686.729,31,35,-0.00103,3.97361,-0.00411,0.00103,0.00077,0.00423,0.00310,,-4.28291E-05,,,
14213,03/07/2022 06:20:58.370,219416.640,3446.774,31,35,-0.00103,3.95469,-0.00409,0.00103,0.00099,0.00423,0.00396,,-1.205202E-05,,0,0
14222,03/07/2022 06:23:31.605,219569.875,0.001,32,36,-0.00103,3.95092,-0.00408,0.00000,0.00000,0.00000,0.00000,,-1.137904E-05,0,0.01162047,0