File: Output/CoinCell_14_220209_NMC.CSV
Data_Point,Date_Time,Test_Time(s),Step_Time(s),Cycle_Index,Step_Index,Current(A),Voltage(V),Power(W),Charge_Capacity(Ah),Discharge_Capacity(Ah),Charge_Energy(Wh),Discharge_Energy(Wh),ACR(Ohm),dV/dt(V/s),Internal_Resistance(Ohm),dQ/dV(Ah/V),dV/dQ(V/Ah)
1,02/10/2022 18:38:14.733,20.000,20.000,1,1,0.00000,2.99217,0.00000,0.00000,0.00000,0.00000,0.00000,,0.0001414029,,,
7,02/10/2022 18:40:14.739,140.006,140.006,1,1,0.00000,3.01286,0.00000,0.00000,0.00000,0.00000,0.00000,,0.0001637,,0,
13,02/10/2022 18:42:14.741,260.008,260.008,1,1,0.00000,3.02815,0.00000,0.00000,0.00000,0.00000,0.00000,,0.0001641523,,0,
19,02/10/2022 18:44:14.744,380.011,380.011,1,1,0.00000,3.04181,0.00000,0.00000,0.00000,0.00000,0.00000,,0.0001524359,,0,
25,02/10/2022 18:45:03.551,428.818,428.818,1,1,0.00000,2.99227,0.00000,0.00000,0.00000,0.00000,0.00000,,-0.0004214449,,,0
31,02/10/2022 18:47:03.557,548.824,548.824,1,1,0.00000,2.98544,0.00000,0.00000,0.00000,0.00000,0.00000,,4.947337E-05,,,0
37,02/10/2022 18:49:03.561,668.828,668.828,1,1,0.00000,2.99943,0.00000,0.00000,0.00000,0.00000,0.00000,,0.0001400201,,,0
43,02/10/2022 18:51:03.564,788.831,788.831,1,1,0.00000,3.01716,0.00000,0.00000,0.00000,0.00000,0.00000,,0.0001020774,,,
49,02/10/2022 18:53:03.567,908.834,908.834,1,1,0.00000,3.03039,0.00000,0.00000,0.00000,0.00000,0.00000,,9.998596E-05,,,
55,02/10/2022 18:55:03.572,1028.839,1028.839,1,1,0.00000,3.03120,0.00000,0.00000,0.00000,0.00000,0.00000,,2.765739E-05,,,
61,02/10/2022 18:57:03.577,1148.844,1148.844,1,1,0.00000,3.04063,0.00000,0.00000,0.00000,0.00000,0.00000,,3.892016E-05,,,
67,02/10/2022 18:59:03.580,1268.847,1268.847,1,1,0.00000,3.04615,0.00000,0.00000,0.00000,0.00000,0.00000,,6.278489E-05,,,
73,02/10/2022 19:01:03.585,1388.852,1388.852,1,1,0.00000,3.05189,0.00000,0.00000,0.00000,0.00000,0.00000,,3.018757E-05,,,
79,02/10/2022 19:03:03.588,1508.855,1508.855,1,1,0.00000,3.05701,0.00000,0.00000,0.00000,0.00000,0.00000,,1.793869E-05,,,
85,02/10/2022 19:05:03.593,1628.860,1628.860,1,1,0.00000,3.06177,0.00000,0.00000,0.00000,0.00000,0.00000,,2.655198E-05,,,
91,02/10/2022 19:07:03.597,1748.864,1748.864,1,1,0.00000,3.06658,0.00000,0.00000,0.00000,0.00000,0.00000,,5.373659E-05,,,
97,02/10/2022 19:09:03.601,1868.868,1868.868,1,1,0.00000,3.06990,0.00000,0.00000,0.00000,0.00000,0.00000,,5.622632E-05,,,
103,02/10/2022 19:11:03.606,1988.873,1988.873,1,1,0.00000,3.07433,0.00000,0.00000,0.00000,0.00000,0.00000,,2.177176E-05,,,
109,02/10/2022 19:13:03.611,2108.878,2108.878,1,1,0.00000,3.07863,0.00000,0.00000,0.00000,0.00000,0.00000,,2.224592E-05,,,
115,02/10/2022 19:15:03.614,2228.881,2228.881,1,1,0.00000,3.08318,0.00000,0.00000,0.00000,0.00000,0.00000,,1.46589E-05,,,
121,02/10/2022 19:17:03.620,2348.887,2348.887,1,1,0.00000,3.08771,0.00000,0.00000,0.00000,0.00000,0.00000,,2.390508E-05,,,
127,02/10/2022 19:19:03.624,2468.891,2468.891,1,1,0.00000,3.09244,0.00000,0.00000,0.00000,0.00000,0.00000,,3.678616E-05,,,
133,02/10/2022 19:21:03.628,2588.895,2588.895,1,1,0.00000,3.09713,0.00000,0.00000,0.00000,0.00000,0.00000,,4.409671E-05,,,
139,02/10/2022 19:23:03.631,2708.898,2708.898,1,1,0.00000,3.10227,0.00000,0.00000,0.00000,0.00000,0.00000,,2.497212E-05,,,
145,02/10/2022 19:25:03.636,2828.903,2828.903,1,1,0.00000,3.10719,0.00000,0.00000,0.00000,0.00000,0.00000,,4.852179E-05,,,
151,02/10/2022 19:27:03.638,2948.905,2948.905,1,1,0.00000,3.11253,0.00000,0.00000,0.00000,0.00000,0.00000,,4.690098E-05,,,
157,02/10/2022 19:29:03.640,3068.907,3068.907,1,1,0.00000,3.11227,0.00000,0.00000,0.00000,0.00000,0.00000,,6.322004E-07,,,
163,02/10/2022 19:31:03.646,3188.913,3188.913,1,1,0.00000,3.11557,0.00000,0.00000,0.00000,0.00000,0.00000,,3.295345E-05,,,
169,02/10/2022 19:33:03.651,3308.918,3308.918,1,1,0.00000,3.11887,0.00000,0.00000,0.00000,0.00000,0.00000,,4.050034E-05,,,
175,02/10/2022 19:35:03.654,3428.921,3428.921,1,1,0.00000,3.12226,0.00000,0.00000,0.00000,0.00000,0.00000,,2.094181E-05,,,
181,02/10/2022 19:37:03.658,3548.925,3548.925,1,1,0.00000,3.12309,0.00000,0.00000,0.00000,0.00000,0.00000,,1.556768E-05,,,
187,02/10/2022 19:39:03.660,3668.927,3668.927,1,1,0.00000,3.12405,0.00000,0.00000,0.00000,0.00000,0.00000,,3.516761E-05,,,
193,02/10/2022 19:41:03.664,3788.931,3788.931,1,1,0.00000,3.12445,0.00000,0.00000,0.00000,0.00000,0.00000,,-4.899472E-05,,,
199,02/10/2022 19:43:03.670,3908.937,3908.937,1,1,0.00000,3.12467,0.00000,0.00000,0.00000,0.00000,0.00000,,1.019415E-05,,,
205,02/10/2022 19:45:03.675,4028.942,4028.942,1,1,0.00000,3.12504,0.00000,0.00000,0.00000,0.00000,0.00000,,1.070781E-05,,,
211,02/10/2022 19:47:03.679,4148.946,4148.946,1,1,0.00000,3.12579,0.00000,0.00000,0.00000,0.00000,0.00000,,-1.134028E-05,,,
217,02/10/2022 19:49:03.681,4268.948,4268.948,1,1,0.00000,3.12559,0.00000,0.00000,0.00000,0.00000,0.00000,,-2.070474E-05,,,
223,02/10/2022 19:51:03.685,4388.952,4388.952,1,1,0.00000,3.12885,0.00000,0.00000,0.00000,0.00000,0.00000,,4.939107E-05,,,
229,02/10/2022 19:53:03.688,4508.955,4508.955,1,1,0.00000,3.13162,0.00000,0.00000,0.00000,0.00000,0.00000,,3.1531E-05,,,
235,02/10/2022 19:55:03.691,4628.958,4628.958,1,1,0.00000,3.12910,0.00000,0.00000,0.00000,0.00000,0.00000,,-1.916389E-05,,,
241,02/10/2022 19:57:03.694,4748.961,4748.961,1,1,0.00000,3.12676,0.00000,0.00000,0.00000,0.00000,0.00000,,-1.402695E-05,,,
247,02/10/2022 19:59:03.697,4868.964,4868.964,1,1,0.00000,3.12752,0.00000,0.00000,0.00000,0.00000,0.00000,,-1.85712E-06,,,
253,02/10/2022 20:01:03.702,4988.969,4988.969,1,1,0.00000,3.12816,0.00000,0.00000,0.00000,0.00000,0.00000,,-3.51679E-06,,,
259,02/10/2022 20:03:03.708,5108.975,5108.975,1,1,0.00000,3.13110,0.00000,0.00000,0.00000,0.00000,0.00000,,7.080645E-05,,,
265,02/10/2022 20:05:03.713,5228.980,5228.980,1,1,0.00000,3.13421,0.00000,0.00000,0.00000,0.00000,0.00000,,2.738195E-05,,,
271,02/10/2022 20:07:03.717,5348.984,5348.984,1,1,0.00000,3.13907,0.00000,0.00000,0.00000,0.00000,0.00000,,3.97496E-05,,,
277,02/10/2022 20:09:03.720,5468.987,5468.987,1,1,0.00000,3.14469,0.00000,0.00000,0.00000,0.00000,0.00000,,2.84883E-05,,,
283,02/10/2022 20:11:03.724,5588.991,5588.991,1,1,0.00000,3.15157,0.00000,0.00000,0.00000,0.00000,0.00000,,6.21922E-05,,,
289,02/10/2022 20:13:03.727,5708.994,5708.994,1,1,0.00000,3.16055,0.00000,0.00000,0.00000,0.00000,0.00000,,6.053319E-05,,,
295,02/10/2022 20:15:03.731,5828.998,5828.998,1,1,0.00000,3.16563,0.00000,0.00000,0.00000,0.00000,0.00000,,5.737314E-05,,,
301,02/10/2022 20:17:03.734,5949.001,5949.001,1,1,0.00000,3.16900,0.00000,0.00000,0.00000,0.00000,0.00000,,8.53414E-06,,,
307,02/10/2022 20:19:03.739,6069.006,6069.006,1,1,0.00000,3.17349,0.00000,0.00000,0.00000,0.00000,0.00000,,1.865022E-05,,0,
313,02/10/2022 20:21:03.742,6189.009,6189.009,1,1,0.00000,3.17998,0.00000,0.00000,0.00000,0.00000,0.00000,,6.515616E-05,,0,
319,02/10/2022 20:23:03.746,6309.013,6309.013,1,1,0.00000,3.18335,0.00000,0.00000,0.00000,0.00000,0.00000,,4.223889E-05,,0,
325,02/10/2022 20:25:03.750,6429.017,6429.017,1,1,0.00000,3.18474,0.00000,0.00000,0.00000,0.00000,0.00000,,3.88013E-05,,0,
331,02/10/2022 20:27:03.756,6549.023,6549.023,1,1,0.00000,3.18772,0.00000,0.00000,0.00000,0.00000,0.00000,,2.477312E-05,,0,
337,02/10/2022 20:29:03.764,6669.031,6669.031,1,1,0.00000,3.19147,0.00000,0.00000,0.00000,0.00000,0.00000,,2.801392E-05,,0,
343,02/10/2022 20:31:03.768,6789.035,6789.035,1,1,0.00000,3.19530,0.00000,0.00000,0.00000,0.00000,0.00000,,2.121787E-05,,0,
349,02/10/2022 20:33:03.771,6909.038,6909.038,1,1,0.00000,3.19832,0.00000,0.00000,0.00000,0.00000,0.00000,,4.279455E-05,,0,
355,02/10/2022 20:35:03.775,7029.042,7029.042,1,1,0.00000,3.20025,0.00000,0.00000,0.00000,0.00000,0.00000,,-1.943904E-05,,0,
361,02/10/2022 20:37:03.778,7149.045,7149.045,1,1,0.00000,3.20152,0.00000,0.00000,0.00000,0.00000,0.00000,,-3.358565E-05,,0,
367,02/10/2022 20:39:03.783,7269.050,7269.050,1,1,0.00000,3.20519,0.00000,0.00000,0.00000,0.00000,0.00000,,7.226841E-05,,0,
373,02/10/2022 20:41:03.786,7389.053,7389.053,1,1,0.00000,3.20586,0.00000,0.00000,0.00000,0.00000,0.00000,,-2.884414E-06,,0,
379,02/10/2022 20:43:03.791,7509.058,7509.058,1,1,0.00000,3.20634,0.00000,0.00000,0.00000,0.00000,0.00000,,-9.996752E-06,,0,
385,02/10/2022 20:45:03.794,7629.061,7629.061,1,1,0.00000,3.20783,0.00000,0.00000,0.00000,0.00000,0.00000,,-2.437923E-05,,0,
391,02/10/2022 20:47:03.797,7749.064,7749.064,1,1,0.00000,3.20923,0.00000,0.00000,0.00000,0.00000,0.00000,,8.100068E-06,,0,
397,02/10/2022 20:49:03.803,7869.070,7869.070,1,1,0.00000,3.20956,0.00000,0.00000,0.00000,0.00000,0.00000,,-1.288162E-05,,0,
403,02/10/2022 20:51:03.806,7989.073,7989.073,1,1,0.00000,3.21169,0.00000,0.00000,0.00000,0.00000,0.00000,,1.979594E-05,,0,
409,02/10/2022 20:53:03.808,8109.075,8109.075,1,1,0.00000,3.21277,0.00000,0.00000,0.00000,0.00000,0.00000,,6.361622E-06,,0,
415,02/10/2022 20:55:03.812,8229.079,8229.079,1,1,0.00000,3.21567,0.00000,0.00000,0.00000,0.00000,0.00000,,8.732774E-06,,0,
421,02/10/2022 20:57:03.816,8349.083,8349.083,1,1,0.00000,3.21752,0.00000,0.00000,0.00000,0.00000,0.00000,,-1.161668E-05,,0,
427,02/10/2022 20:59:03.819,8469.086,8469.086,1,1,0.00000,3.21738,0.00000,0.00000,0.00000,0.00000,0.00000,,-4.148884E-06,,,
433,02/10/2022 21:01:03.822,8589.089,8589.089,1,1,0.00000,3.21555,0.00000,0.00000,0.00000,0.00000,0.00000,,-3.516673E-05,,,
439,02/10/2022 21:03:03.826,8709.093,8709.093,1,1,0.00000,3.21478,0.00000,0.00000,0.00000,0.00000,0.00000,,-2.663144E-05,,,
445,02/10/2022 21:05:03.829,8829.096,8829.096,1,1,0.00000,3.21371,0.00000,0.00000,0.00000,0.00000,0.00000,,-2.52876E-06,,,
451,02/10/2022 21:07:03.834,8949.101,8949.101,1,1,0.00000,3.21282,0.00000,0.00000,0.00000,0.00000,0.00000,,1.335512E-05,,,
457,02/10/2022 21:09:03.839,9069.106,9069.106,1,1,0.00000,3.21176,0.00000,0.00000,0.00000,0.00000,0.00000,,-1.418476E-05,,,
463,02/10/2022 21:11:03.841,9189.108,9189.108,1,1,0.00000,3.21092,0.00000,0.00000,0.00000,0.00000,0.00000,,-1.548917E-05,,,
469,02/10/2022 21:13:03.845,9309.112,9309.112,1,1,0.00000,3.21064,0.00000,0.00000,0.00000,0.00000,0.00000,,2.185043E-05,,,
475,02/10/2022 21:15:03.850,9429.117,9429.117,1,1,0.00000,3.21182,0.00000,0.00000,0.00000,0.00000,0.00000,,-6.756642E-06,,,
481,02/10/2022 21:17:03.856,9549.123,9549.123,1,1,0.00000,3.20583,0.00000,0.00000,0.00000,0.00000,0.00000,,-4.654537E-05,,,
487,02/10/2022 21:19:03.858,9669.125,9669.125,1,1,0.00000,3.20141,0.00000,0.00000,0.00000,0.00000,0.00000,,-3.678616E-05,,,
493,02/10/2022 21:21:03.862,9789.129,9789.129,1,1,0.00000,3.20963,0.00000,0.00000,0.00000,0.00000,0.00000,,0.0001134129,,,
499,02/10/2022 21:23:03.866,9909.133,9909.133,1,1,0.00000,3.21578,0.00000,0.00000,0.00000,0.00000,0.00000,,-0.0001283516,,,
505,02/10/2022 21:25:03.870,10029.137,10029.137,1,1,0.00000,3.21117,0.00000,0.00000,0.00000,0.00000,0.00000,,-2.678994E-05,,,
511,02/10/2022 21:27:03.873,10149.140,10149.140,1,1,0.00000,3.20673,0.00000,0.00000,0.00000,0.00000,0.00000,,-5.729316E-05,,,
517,02/10/2022 21:29:03.878,10269.145,10269.145,1,1,0.00000,3.20007,0.00000,0.00000,0.00000,0.00000,0.00000,,-5.784634E-05,,,
523,02/10/2022 21:31:03.881,10389.148,10389.148,1,1,0.00000,3.19481,0.00000,0.00000,0.00000,0.00000,0.00000,,-4.334524E-05,,,
529,02/10/2022 21:33:03.887,10509.154,10509.154,1,1,0.00000,3.19314,0.00000,0.00000,0.00000,0.00000,0.00000,,-2.924048E-06,,,
535,02/10/2022 21:35:03.890,10629.157,10629.157,1,1,0.00000,3.19320,0.00000,0.00000,0.00000,0.00000,0.00000,,8.45568E-06,,,
541,02/10/2022 21:37:03.895,10749.162,10749.162,1,1,0.00000,3.20570,0.00000,0.00000,0.00000,0.00000,0.00000,,0.0002322502,,,
547,02/10/2022 21:39:03.899,10869.166,10869.166,1,1,0.00000,3.21196,0.00000,0.00000,0.00000,0.00000,0.00000,,-1.343426E-06,,,
553,02/10/2022 21:41:03.902,10989.169,10989.169,1,1,0.00000,3.20963,0.00000,0.00000,0.00000,0.00000,0.00000,,-2.667118E-05,,,
559,02/10/2022 21:43:03.906,11109.173,11109.173,1,1,0.00000,3.20398,0.00000,0.00000,0.00000,0.00000,0.00000,,-0.0001171579,,,
565,02/10/2022 21:45:03.910,11229.177,11229.177,1,1,0.00000,3.19378,0.00000,0.00000,0.00000,0.00000,0.00000,,-5.409175E-05,,,
571,02/10/2022 21:47:03.914,11349.181,11349.181,1,1,0.00000,3.19507,0.00000,0.00000,0.00000,0.00000,0.00000,,4.769201E-05,,,
577,02/10/2022 21:49:03.918,11469.185,11469.185,1,1,0.00000,3.21086,0.00000,0.00000,0.00000,0.00000,0.00000,,7.207204E-05,,,
583,02/10/2022 21:51:03.924,11589.191,11589.191,1,1,0.00000,3.21055,0.00000,0.00000,0.00000,0.00000,0.00000,,-3.733934E-05,,,
589,02/10/2022 21:53:03.929,11709.196,11709.196,1,1,0.00000,3.20800,0.00000,0.00000,0.00000,0.00000,0.00000,,-1.73072E-05,,,
595,02/10/2022 21:55:03.933,11829.200,11829.200,1,1,0.00000,3.20522,0.00000,0.00000,0.00000,0.00000,0.00000,,-9.186477E-05,,,
601,02/10/2022 21:57:03.938,11949.205,11949.205,1,1,0.00000,3.19935,0.00000,0.00000,0.00000,0.00000,0.00000,,-5.650198E-05,,,
607,02/10/2022 21:59:03.944,12069.211,12069.211,1,1,0.00000,3.20325,0.00000,0.00000,0.00000,0.00000,0.00000,,3.560049E-05,,,
613,02/10/2022 22:01:03.948,12189.215,12189.215,1,1,0.00000,3.20426,0.00000,0.00000,0.00000,0.00000,0.00000,,-1.469878E-05,,,
619,02/10/2022 22:03:03.950,12309.217,12309.217,1,1,0.00000,3.20849,0.00000,0.00000,0.00000,0.00000,0.00000,,3.346739E-05,,,
625,02/10/2022 22:05:03.952,12429.219,12429.219,1,1,0.00000,3.20921,0.00000,0.00000,0.00000,0.00000,0.00000,,4.370013E-05,,,
631,02/10/2022 22:07:03.957,12549.224,12549.224,1,1,0.00000,3.21037,0.00000,0.00000,0.00000,0.00000,0.00000,,3.382216E-05,,,
637,02/10/2022 22:09:03.960,12669.227,12669.227,1,1,0.00000,3.21194,0.00000,0.00000,0.00000,0.00000,0.00000,,2.742169E-05,,,
643,02/10/2022 22:11:03.965,12789.232,12789.232,1,1,0.00000,3.21453,0.00000,0.00000,0.00000,0.00000,0.00000,,4.148746E-05,,,
649,02/10/2022 22:13:03.967,12909.234,12909.234,1,1,0.00000,3.21579,0.00000,0.00000,0.00000,0.00000,0.00000,,1.825479E-05,,,
655,02/10/2022 22:15:03.974,13029.241,13029.241,1,1,0.00000,3.21771,0.00000,0.00000,0.00000,0.00000,0.00000,,-7.230852E-06,,,
661,02/10/2022 22:17:03.977,13149.244,13149.244,1,1,0.00000,3.21889,0.00000,0.00000,0.00000,0.00000,0.00000,,2.066488E-05,,,
667,02/10/2022 22:19:03.980,13269.247,13269.247,1,1,0.00000,3.22011,0.00000,0.00000,0.00000,0.00000,0.00000,,6.242875E-06,,,
673,02/10/2022 22:21:03.984,13389.251,13389.251,1,1,0.00000,3.22142,0.00000,0.00000,0.00000,0.00000,0.00000,,-1.568647E-05,,,
679,02/10/2022 22:23:03.989,13509.256,13509.256,1,1,0.00000,3.22286,0.00000,0.00000,0.00000,0.00000,0.00000,,2.864658E-05,,,
685,02/10/2022 22:25:03.994,13629.261,13629.261,1,1,0.00000,3.22384,0.00000,0.00000,0.00000,0.00000,0.00000,,2.532774E-05,,,
691,02/10/2022 22:27:03.999,13749.266,13749.266,1,1,0.00000,3.22484,0.00000,0.00000,0.00000,0.00000,0.00000,,2.690825E-05,,,
697,02/10/2022 22:29:04.003,13869.270,13869.270,1,1,0.00000,3.22578,0.00000,0.00000,0.00000,0.00000,0.00000,,-3.002977E-06,,,
703,02/10/2022 22:31:04.007,13989.274,13989.274,1,1,0.00000,3.22730,0.00000,0.00000,0.00000,0.00000,0.00000,,-1.81364E-05,,,
709,02/10/2022 22:33:04.010,14109.277,14109.277,1,1,0.00000,3.22913,0.00000,0.00000,0.00000,0.00000,0.00000,,3.69439E-05,,,
715,02/10/2022 22:35:04.016,14229.283,14229.283,1,1,0.00000,3.23097,0.00000,0.00000,0.00000,0.00000,0.00000,,-4.623004E-06,,,
721,02/10/2022 22:37:04.022,14349.289,14349.289,1,1,0.00000,3.23217,0.00000,0.00000,0.00000,0.00000,0.00000,,-1.857058E-05,,,
727,02/10/2022 22:37:54.829,14400.096,0.018,1,2,0.00000,3.25593,0.00000,0.00000,0.00000,0.00000,0.00000,,,,,
733,02/10/2022 22:37:54.862,14400.129,0.052,1,2,0.00003,3.95120,0.00012,0.00000,0.00000,0.00000,0.00000,,,,,
739,02/10/2022 22:37:54.949,14400.216,0.138,1,2,0.00004,5.25698,0.00022,0.00000,0.00000,0.00000,0.00000,,,,,
745,02/10/2022 22:37:54.982,14400.249,0.172,1,2,0.00004,4.44925,0.00018,0.00000,0.00000,0.00000,0.00000,,,,,
751,02/10/2022 22:37:55.015,14400.282,0.204,1,2,0.00004,4.52118,0.00018,0.00000,0.00000,0.00000,0.00000,,,,,
757,02/10/2022 22:37:55.047,14400.314,0.236,1,2,0.00004,4.45252,0.00018,0.00000,0.00000,0.00000,0.00000,,,,,
763,02/10/2022 22:37:55.087,14400.354,0.276,1,2,0.00004,4.25027,0.00017,0.00000,0.00000,0.00000,0.00000,,,,,
769,02/10/2022 22:37:55.122,14400.389,0.312,1,2,0.00004,4.42074,0.00017,0.00000,0.00000,0.00000,0.00000,,,,,
775,02/10/2022 22:37:55.154,14400.421,0.343,1,2,0.00004,4.62225,0.00018,0.00000,0.00000,0.00000,0.00000,,,,,
781,02/10/2022 22:37:55.192,14400.459,0.381,1,2,0.00004,4.17308,0.00016,0.00000,0.00000,0.00000,0.00000,,,,,
787,02/10/2022 22:37:55.227,14400.494,0.416,1,2,0.00004,4.39114,0.00016,0.00000,0.00000,0.00000,0.00000,,,,,
793,02/10/2022 22:37:55.271,14400.538,0.461,1,2,0.00004,4.60101,0.00016,0.00000,0.00000,0.00000,0.00000,,,,,
799,02/10/2022 22:37:55.305,14400.572,0.494,1,2,0.00004,4.38843,0.00015,0.00000,0.00000,0.00000,0.00000,,,,,
805,02/10/2022 22:37:55.338,14400.605,0.527,1,2,0.00003,4.22236,0.00015,0.00000,0.00000,0.00000,0.00000,,,,,
811,02/10/2022 22:37:55.379,14400.646,0.568,1,2,0.00003,4.61922,0.00016,0.00000,0.00000,0.00000,0.00000,,,,,
817,02/10/2022 22:37:55.412,14400.679,0.601,1,2,0.00003,4.34250,0.00014,0.00000,0.00000,0.00000,0.00000,,,,,
823,02/10/2022 22:37:55.445,14400.712,0.634,1,2,0.00003,4.26693,0.00014,0.00000,0.00000,0.00000,0.00000,,,,,
829,02/10/2022 22:37:55.479,14400.746,0.668,1,2,0.00003,4.72893,0.00015,0.00000,0.00000,0.00000,0.00000,,,,,
835,02/10/2022 22:37:55.517,14400.784,0.707,1,2,0.00003,4.24951,0.00013,0.00000,0.00000,0.00000,0.00000,,,,,
841,02/10/2022 22:37:55.557,14400.824,0.746,1,2,0.00003,4.15293,0.00013,0.00000,0.00000,0.00000,0.00000,,,,,
847,02/10/2022 22:37:55.591,14400.858,0.781,1,2,0.00003,4.69331,0.00014,0.00000,0.00000,0.00000,0.00000,,,,,
853,02/10/2022 22:37:55.624,14400.891,0.813,1,2,0.00003,4.18223,0.00012,0.00000,0.00000,0.00000,0.00000,,,,,
859,02/10/2022 22:37:55.659,14400.926,0.848,1,2,0.00003,4.37200,0.00013,0.00000,0.00000,0.00000,0.00000,,,,,
865,02/10/2022 22:37:55.702,14400.969,0.892,1,2,0.00003,4.62349,0.00013,0.00000,0.00000,0.00000,0.00000,,,,,
871,02/10/2022 22:37:55.737,14401.004,0.926,1,2,0.00003,4.36676,0.00012,0.00000,0.00000,0.00000,0.00000,,,,,
877,02/10/2022 22:37:55.770,14401.037,0.959,1,2,0.00003,4.26344,0.00012,0.00000,0.00000,0.00000,0.00000,,,,,
883,02/10/2022 22:37:55.803,14401.070,0.992,1,2,0.00003,4.72162,0.00013,0.00000,0.00000,0.00000,0.00000,,,,,
889,02/10/2022 22:37:55.837,14401.104,1.026,1,2,0.00003,4.06965,0.00011,0.00000,0.00000,0.00000,0.00000,,,,,
895,02/10/2022 22:37:55.872,14401.139,1.061,1,2,0.00003,4.49265,0.00012,0.00000,0.00000,0.00000,0.00000,,-1.032723,0,-2.007045E-09,-1.338836E+09
901,02/10/2022 22:37:56.088,14401.355,0.157,1,3,0.00000,3.63141,0.00000,0.00000,0.00000,0.00000,0.00000,,,,,
907,02/10/2022 22:37:56.324,14401.591,0.393,1,3,0.00000,3.56717,0.00000,0.00000,0.00000,0.00000,0.00000,,,,,
913,02/10/2022 22:37:56.717,14401.984,0.786,1,3,0.00000,3.50542,0.00000,0.00000,0.00000,0.00000,0.00000,,,,,
919,02/10/2022 22:37:57.315,14402.582,1.384,1,3,0.00000,3.44456,0.00000,0.00000,0.00000,0.00000,0.00000,,,,,
925,02/10/2022 22:37:58.233,14403.500,2.303,1,3,0.00000,3.38330,0.00000,0.00000,0.00000,0.00000,0.00000,,,,,
931,02/10/2022 22:37:59.763,14405.030,3.832,1,3,0.00000,3.32286,0.00000,0.00000,0.00000,0.00000,0.00000,,,,,
937,02/10/2022 22:38:04.591,14409.858,8.660,1,3,0.00000,3.26250,0.00000,0.00000,0.00000,0.00000,0.00000,,-0.005889663,,,
943,02/10/2022 22:39:38.581,14503.848,102.650,1,3,0.00000,3.23697,0.00000,0.00000,0.00000,0.00000,0.00000,,-2.105983E-05,,,
949,02/10/2022 22:41:38.585,14623.852,222.654,1,3,0.00000,3.23692,0.00000,0.00000,0.00000,0.00000,0.00000,,-1.315789E-05,,,
955,02/10/2022 22:43:38.590,14743.857,342.659,1,3,0.00000,3.23811,0.00000,0.00000,0.00000,0.00000,0.00000,,6.795873E-06,,,
961,02/10/2022 22:45:38.593,14863.860,462.662,1,3,0.00000,3.23914,0.00000,0.00000,0.00000,0.00000,0.00000,,3.4968E-05,,,
967,02/10/2022 22:47:38.596,14983.863,582.666,1,3,0.00000,3.23991,0.00000,0.00000,0.00000,0.00000,0.00000,,-7.388842E-06,,,
973,02/10/2022 22:49:38.602,15103.869,702.671,1,3,0.00000,3.24047,0.00000,0.00000,0.00000,0.00000,0.00000,,3.121542E-05,,,
979,02/10/2022 22:51:38.605,15223.872,822.674,1,3,0.00000,3.24175,0.00000,0.00000,0.00000,0.00000,0.00000,,4.690409E-05,,,
985,02/10/2022 22:53:38.608,15343.875,942.677,1,3,0.00000,3.24219,0.00000,0.00000,0.00000,0.00000,0.00000,,2.430061E-05,,,
991,02/10/2022 22:55:38.613,15463.880,1062.682,1,3,0.00000,3.24346,0.00000,0.00000,0.00000,0.00000,0.00000,,2.813245E-05,,,
997,02/10/2022 22:57:38.617,15583.884,1182.686,1,3,0.00000,3.24375,0.00000,0.00000,0.00000,0.00000,0.00000,,2.216653E-05,,,
1003,02/10/2022 22:59:38.623,15703.890,1302.692,1,3,0.00000,3.24438,0.00000,0.00000,0.00000,0.00000,0.00000,,7.112254E-06,,,
1009,02/10/2022 23:01:38.627,15823.894,1422.696,1,3,0.00000,3.24472,0.00000,0.00000,0.00000,0.00000,0.00000,,1.35528E-05,,,
1015,02/10/2022 23:03:38.629,15943.896,1542.698,1,3,0.00000,3.24502,0.00000,0.00000,0.00000,0.00000,0.00000,,3.24E-06,,,
1021,02/10/2022 23:05:38.632,16063.899,1662.702,1,3,0.00000,3.24568,0.00000,0.00000,0.00000,0.00000,0.00000,,3.330934E-05,,,
1027,02/10/2022 23:07:38.636,16183.903,1782.705,1,3,0.00000,3.24614,0.00000,0.00000,0.00000,0.00000,0.00000,,1.473805E-05,,,
1033,02/10/2022 23:09:38.640,16303.907,1902.709,1,3,0.00000,3.24622,0.00000,0.00000,0.00000,0.00000,0.00000,,1.959821E-05,,,
1039,02/10/2022 23:11:38.642,16423.909,2022.711,1,3,0.00000,3.24520,0.00000,0.00000,0.00000,0.00000,0.00000,,1.762229E-05,,,
1045,02/10/2022 23:13:38.646,16543.913,2142.715,1,3,0.00000,3.24623,0.00000,0.00000,0.00000,0.00000,0.00000,,9.285367E-06,,,
1051,02/10/2022 23:15:38.650,16663.917,2262.719,1,3,0.00000,3.24632,0.00000,0.00000,0.00000,0.00000,0.00000,,1.280206E-05,,,
1057,02/10/2022 23:17:38.653,16783.920,2382.722,1,3,0.00000,3.24502,0.00000,0.00000,0.00000,0.00000,0.00000,,-3.224275E-05,,,
1063,02/10/2022 23:19:38.656,16903.923,2502.725,1,3,0.00000,3.24386,0.00000,0.00000,0.00000,0.00000,0.00000,,-4.804484E-05,,,
1069,02/10/2022 23:21:38.659,17023.926,2622.728,1,3,0.00000,3.24171,0.00000,0.00000,0.00000,0.00000,0.00000,,-1.375024E-05,,,
1075,02/10/2022 23:23:38.663,17143.930,2742.732,1,3,0.00000,3.24026,0.00000,0.00000,0.00000,0.00000,0.00000,,-2.133676E-06,,,
1081,02/10/2022 23:25:38.667,17263.934,2862.736,1,3,0.00000,3.23861,0.00000,0.00000,0.00000,0.00000,0.00000,,-2.599967E-05,,,
1087,02/10/2022 23:27:38.670,17383.937,2982.739,1,3,0.00000,3.23741,0.00000,0.00000,0.00000,0.00000,0.00000,,-3.500781E-05,,,
1093,02/10/2022 23:29:38.675,17503.942,3102.744,1,3,0.00000,3.23850,0.00000,0.00000,0.00000,0.00000,0.00000,,-3.402057E-05,,,
1099,02/10/2022 23:31:38.679,17623.946,3222.748,1,3,0.00000,3.23902,0.00000,0.00000,0.00000,0.00000,0.00000,,1.047082E-05,,,
1105,02/10/2022 23:33:38.685,17743.952,3342.754,1,3,0.00000,3.23783,0.00000,0.00000,0.00000,0.00000,0.00000,,9.798619E-06,,,
1111,02/10/2022 23:35:38.689,17863.956,3462.759,1,3,0.00000,3.23801,0.00000,0.00000,0.00000,0.00000,0.00000,,-2.355083E-05,,,
1117,02/10/2022 23:37:38.693,17983.960,3582.762,1,3,0.00000,3.23761,0.00000,0.00000,0.00000,0.00000,0.00000,,2.497316E-05,,,
1123,02/10/2022 23:37:56.037,18001.304,0.028,1,4,-0.00002,2.65183,-0.00007,0.00000,0.00000,0.00000,0.00000,,,,,
1129,02/10/2022 23:37:56.229,18001.496,0.079,1,5,0.00000,3.00939,0.00000,0.00000,0.00000,0.00000,0.00000,,,,,
1135,02/10/2022 23:37:56.345,18001.612,0.195,1,5,0.00000,3.08522,0.00000,0.00000,0.00000,0.00000,0.00000,,,,,
1141,02/10/2022 23:37:56.565,18001.832,0.415,1,5,0.00000,3.15017,0.00000,0.00000,0.00000,0.00000,0.00000,,,,,
1147,02/10/2022 23:37:57.545,18002.812,1.395,1,5,0.00000,3.21129,0.00000,0.00000,0.00000,0.00000,0.00000,,,,,
1153,02/10/2022 23:39:21.549,18086.816,85.399,1,5,0.00000,3.23734,0.00000,0.00000,0.00000,0.00000,0.00000,,-1.011521E-05,,,
1159,02/10/2022 23:41:21.553,18206.820,205.403,1,5,0.00000,3.23866,0.00000,0.00000,0.00000,0.00000,0.00000,,4.907456E-05,,,
1165,02/10/2022 23:43:21.557,18326.824,325.407,1,5,0.00000,3.23947,0.00000,0.00000,0.00000,0.00000,0.00000,,2.149446E-05,,,
1171,02/10/2022 23:45:21.560,18446.827,445.410,1,5,0.00000,3.23981,0.00000,0.00000,0.00000,0.00000,0.00000,,1.936082E-06,,,
1177,02/10/2022 23:47:21.564,18566.831,565.414,1,5,0.00000,3.24015,0.00000,0.00000,0.00000,0.00000,0.00000,,-1.023383E-05,,,
1183,02/10/2022 23:49:21.571,18686.838,685.421,1,5,0.00000,3.24115,0.00000,0.00000,0.00000,0.00000,0.00000,,2.556503E-05,,,
1189,02/10/2022 23:51:21.574,18806.841,805.424,1,5,0.00000,3.23956,0.00000,0.00000,0.00000,0.00000,0.00000,,-4.630868E-05,,,
1195,02/10/2022 23:53:21.579,18926.846,925.429,1,5,0.00000,3.24049,0.00000,0.00000,0.00000,0.00000,0.00000,,3.488898E-05,,,
1201,02/10/2022 23:55:21.583,19046.850,1045.433,1,5,0.00000,3.24200,0.00000,0.00000,0.00000,0.00000,0.00000,,-8.771781E-06,,,
1207,02/10/2022 23:57:21.586,19166.853,1165.436,1,5,0.00000,3.24172,0.00000,0.00000,0.00000,0.00000,0.00000,,-2.323317E-05,,,
1213,02/10/2022 23:59:21.589,19286.856,1285.439,1,5,0.00000,3.24191,0.00000,0.00000,0.00000,0.00000,0.00000,,1.240693E-05,,,
1219,02/11/2022 00:01:21.595,19406.862,1405.445,1,5,0.00000,3.24111,0.00000,0.00000,0.00000,0.00000,0.00000,,-1.529109E-05,,,
1225,02/11/2022 00:03:21.600,19526.867,1525.450,1,5,0.00000,3.24053,0.00000,0.00000,0.00000,0.00000,0.00000,,-2.892269E-05,,,
1231,02/11/2022 00:05:21.603,19646.870,1645.453,1,5,0.00000,3.23894,0.00000,0.00000,0.00000,0.00000,0.00000,,-1.323593E-05,,,
1237,02/11/2022 00:07:21.608,19766.875,1765.458,1,5,0.00000,3.23774,0.00000,0.00000,0.00000,0.00000,0.00000,,-3.528439E-05,,,
1243,02/11/2022 00:09:21.612,19886.879,1885.462,1,5,0.00000,3.23857,0.00000,0.00000,0.00000,0.00000,0.00000,,-3.812959E-05,,,
1249,02/11/2022 00:11:21.617,20006.884,2005.467,1,5,0.00000,3.23865,0.00000,0.00000,0.00000,0.00000,0.00000,,3.318887E-06,,,
1255,02/11/2022 00:13:21.621,20126.888,2125.471,1,5,0.00000,3.23956,0.00000,0.00000,0.00000,0.00000,0.00000,,4.780976E-06,,,
1261,02/11/2022 00:15:21.624,20246.891,2245.474,1,5,0.00000,3.23850,0.00000,0.00000,0.00000,0.00000,0.00000,,4.172523E-05,,,
1267,02/11/2022 00:17:21.627,20366.894,2365.477,1,5,0.00000,3.23902,0.00000,0.00000,0.00000,0.00000,0.00000,,4.421415E-05,,,
1273,02/11/2022 00:19:21.632,20486.899,2485.482,1,5,0.00000,3.23985,0.00000,0.00000,0.00000,0.00000,0.00000,,-3.990699E-06,,,
1279,02/11/2022 00:21:21.636,20606.903,2605.486,1,5,0.00000,3.24118,0.00000,0.00000,0.00000,0.00000,0.00000,,2.216671E-05,,,
1285,02/11/2022 00:23:21.639,20726.906,2725.489,1,5,0.00000,3.24003,0.00000,0.00000,0.00000,0.00000,0.00000,,2.220604E-05,,,
1291,02/11/2022 00:25:21.642,20846.909,2845.492,1,5,0.00000,3.23974,0.00000,0.00000,0.00000,0.00000,0.00000,,-2.923878E-06,,,
1297,02/11/2022 00:27:21.645,20966.912,2965.495,1,5,0.00000,3.23987,0.00000,0.00000,0.00000,0.00000,0.00000,,3.31115E-05,,,
1303,02/11/2022 00:29:21.648,21086.915,3085.498,1,5,0.00000,3.24071,0.00000,0.00000,0.00000,0.00000,0.00000,,2.663144E-05,,,
1309,02/11/2022 00:31:21.652,21206.919,3205.502,1,5,0.00000,3.24167,0.00000,0.00000,0.00000,0.00000,0.00000,,9.799674E-06,,,
1315,02/11/2022 00:33:21.655,21326.922,3325.505,1,5,0.00000,3.24262,0.00000,0.00000,0.00000,0.00000,0.00000,,-4.741503E-07,,,
1321,02/11/2022 00:35:21.661,21446.928,3445.511,1,5,0.00000,3.24417,0.00000,0.00000,0.00000,0.00000,0.00000,,4.634819E-05,,,
1327,02/11/2022 00:37:21.665,21566.932,3565.515,1,5,0.00000,3.24555,0.00000,0.00000,0.00000,0.00000,0.00000,,5.294678E-06,,,
1333,02/11/2022 00:37:56.249,21601.516,0.013,2,2,0.00000,3.27277,0.00000,0.00000,0.00000,0.00000,0.00000,,,,,
1339,02/11/2022 00:37:56.339,21601.606,0.104,2,2,0.00007,4.36674,0.00029,0.00000,0.00000,0.00000,0.00000,,,,,
1345,02/11/2022 00:37:56.373,21601.640,0.137,2,2,0.00006,4.97600,0.00032,0.00000,0.00000,0.00000,0.00000,,,,,
1351,02/11/2022 00:37:56.406,21601.673,0.170,2,2,0.00006,3.93500,0.00024,0.00000,0.00000,0.00000,0.00000,,,,,
1357,02/11/2022 00:37:56.440,21601.707,0.204,2,2,0.00006,4.57476,0.00028,0.00000,0.00000,0.00000,0.00000,,,,,
1363,02/11/2022 00:37:56.474,21601.741,0.239,2,2,0.00006,4.66369,0.00027,0.00000,0.00000,0.00000,0.00000,,,,,
1369,02/11/2022 00:37:56.506,21601.773,0.271,2,2,0.00006,4.03555,0.00023,0.00000,0.00000,0.00000,0.00000,,,,,
1375,02/11/2022 00:37:56.541,21601.808,0.305,2,2,0.00006,4.58615,0.00026,0.00000,0.00000,0.00000,0.00000,,,,,
1381,02/11/2022 00:37:56.575,21601.842,0.340,2,2,0.00005,4.59904,0.00025,0.00000,0.00000,0.00000,0.00000,,,,,
1387,02/11/2022 00:37:56.609,21601.876,0.373,2,2,0.00005,4.06523,0.00022,0.00000,0.00000,0.00000,0.00000,,,,,
1393,02/11/2022 00:37:56.641,21601.908,0.406,2,2,0.00005,4.63005,0.00024,0.00000,0.00000,0.00000,0.00000,,,,,
1399,02/11/2022 00:37:56.676,21601.943,0.440,2,2,0.00005,4.45686,0.00022,0.00000,0.00000,0.00000,0.00000,,,,,
1405,02/11/2022 00:37:56.709,21601.976,0.473,2,2,0.00005,4.12295,0.00020,0.00000,0.00000,0.00000,0.00000,,,,,
1411,02/11/2022 00:37:56.742,21602.009,0.507,2,2,0.00005,4.68146,0.00022,0.00000,0.00000,0.00000,0.00000,,,,,
1417,02/11/2022 00:37:56.776,21602.043,0.540,2,2,0.00005,4.31991,0.00020,0.00000,0.00000,0.00000,0.00000,,,,,
1423,02/11/2022 00:37:56.809,21602.076,0.573,2,2,0.00005,4.22109,0.00019,0.00000,0.00000,0.00000,0.00000,,,,,
1429,02/11/2022 00:37:56.843,21602.110,0.608,2,2,0.00004,4.74281,0.00021,0.00000,0.00000,0.00000,0.00000,,,,,
1435,02/11/2022 00:37:56.877,21602.144,0.641,2,2,0.00004,4.15704,0.00018,0.00000,0.00000,0.00000,0.00000,,,,,
1441,02/11/2022 00:37:56.916,21602.183,0.681,2,2,0.00004,4.11501,0.00017,0.00000,0.00000,0.00000,0.00000,,,,,
1447,02/11/2022 00:37:56.950,21602.217,0.714,2,2,0.00004,4.66428,0.00019,0.00000,0.00000,0.00000,0.00000,,,,,
1453,02/11/2022 00:37:56.984,21602.251,0.749,2,2,0.00004,4.36763,0.00018,0.00000,0.00000,0.00000,0.00000,,,,,
1459,02/11/2022 00:37:57.017,21602.284,0.781,2,2,0.00004,4.19665,0.00016,0.00000,0.00000,0.00000,0.00000,,,,,
1465,02/11/2022 00:37:57.056,21602.323,0.821,2,2,0.00004,4.58498,0.00017,0.00000,0.00000,0.00000,0.00000,,,,,
1471,02/11/2022 00:37:57.089,21602.356,0.854,2,2,0.00004,4.59034,0.00017,0.00000,0.00000,0.00000,0.00000,,,,,
1477,02/11/2022 00:37:57.123,21602.390,0.888,2,2,0.00004,4.07429,0.00015,0.00000,0.00000,0.00000,0.00000,,,,,
1483,02/11/2022 00:37:57.165,21602.432,0.929,2,2,0.00004,4.49243,0.00016,0.00000,0.00000,0.00000,0.00000,,,,,
1489,02/11/2022 00:37:57.196,21602.463,0.961,2,2,0.00003,4.71990,0.00016,0.00000,0.00000,0.00000,0.00000,,,,,
1495,02/11/2022 00:37:57.230,21602.497,0.994,2,2,0.00003,3.97729,0.00013,0.00000,0.00000,0.00000,0.00000,,,,,
1501,02/11/2022 00:37:57.263,21602.530,1.028,2,2,0.00003,4.59982,0.00015,0.00000,0.00000,0.00000,0.00000,,,,,
1507,02/11/2022 00:37:57.298,21602.565,1.062,2,2,0.00003,4.54916,0.00015,0.00000,0.00000,0.00000,0.00000,,,,,
1513,02/11/2022 00:37:57.337,21602.604,1.101,2,2,0.00003,3.94141,0.00012,0.00000,0.00000,0.00000,0.00000,,,,,
1519,02/11/2022 00:37:57.371,21602.638,1.135,2,2,0.00003,4.53466,0.00014,0.00000,0.00000,0.00000,0.00000,,,,,
1525,02/11/2022 00:37:57.403,21602.670,1.168,2,2,0.00003,4.68193,0.00014,0.00000,0.00000,0.00000,0.00000,,,,,
1531,02/11/2022 00:37:57.437,21602.704,1.201,2,2,0.00003,4.01425,0.00012,0.00000,0.00000,0.00000,0.00000,,,,,
1537,02/11/2022 00:37:57.470,21602.737,1.235,2,2,0.00003,4.63779,0.00013,0.00000,0.00000,0.00000,0.00000,,,,,
1543,02/11/2022 00:37:57.503,21602.770,1.268,2,2,0.00003,4.46038,0.00012,0.00000,0.00000,0.00000,0.00000,,,,,
1549,02/11/2022 00:37:57.538,21602.805,1.302,2,2,0.00003,4.10020,0.00011,0.00000,0.00000,0.00000,0.00000,,,,,
1555,02/11/2022 00:37:57.572,21602.839,1.337,2,2,0.00003,4.73845,0.00013,0.00000,0.00000,0.00000,0.00000,,,,,
1561,02/11/2022 00:37:57.600,21602.867,1.365,2,2,0.00003,3.95084,0.00010,0.00000,0.00000,0.00000,0.00000,,-6.002595,0,6.185746E-10,1.61662E+09
1567,02/11/2022 00:37:57.733,21603.000,0.072,2,3,0.00000,3.83369,0.00000,0.00000,0.00000,0.00000,0.00000,,,,,
1573,02/11/2022 00:37:57.806,21603.073,0.145,2,3,0.00000,3.75389,0.00000,0.00000,0.00000,0.00000,0.00000,,,,,
1579,02/11/2022 00:37:57.929,21603.196,0.268,2,3,0.00000,3.68241,0.00000,0.00000,0.00000,0.00000,0.00000,,,,,
1585,02/11/2022 00:37:58.148,21603.415,0.487,2,3,0.00000,3.61665,0.00000,0.00000,0.00000,0.00000,0.00000,,,,,
1591,02/11/2022 00:37:58.506,21603.773,0.845,2,3,0.00000,3.55283,0.00000,0.00000,0.00000,0.00000,0.00000,,,,,
1597,02/11/2022 00:37:59.032,21604.299,1.371,2,3,0.00000,3.49164,0.00000,0.00000,0.00000,0.00000,0.00000,,-0.1033431,,,
1603,02/11/2022 00:37:59.795,21605.062,2.134,2,3,0.00000,3.43040,0.00000,0.00000,0.00000,0.00000,0.00000,,,,,
1609,02/11/2022 00:38:00.947,21606.214,3.286,2,3,0.00000,3.36940,0.00000,0.00000,0.00000,0.00000,0.00000,,,,,
1615,02/11/2022 00:38:03.193,21608.460,5.532,2,3,0.00000,3.30893,0.00000,0.00000,0.00000,0.00000,0.00000,,-0.01701705,,,
1621,02/11/2022 00:38:35.352,21640.619,37.690,2,3,0.00000,3.25168,0.00000,0.00000,0.00000,0.00000,0.00000,,-0.0002312069,,,
1627,02/11/2022 00:40:35.356,21760.623,157.695,2,3,0.00000,3.24676,0.00000,0.00000,0.00000,0.00000,0.00000,,-2.856921E-05,,,
1633,02/11/2022 00:42:35.359,21880.626,277.698,2,3,0.00000,3.24630,0.00000,0.00000,0.00000,0.00000,0.00000,,-2.287737E-05,,,
1639,02/11/2022 00:44:35.364,22000.631,397.703,2,3,0.00000,3.24734,0.00000,0.00000,0.00000,0.00000,0.00000,,2.410264E-05,,,
1645,02/11/2022 00:46:35.369,22120.636,517.707,2,3,0.00000,3.24825,0.00000,0.00000,0.00000,0.00000,0.00000,,-6.164056E-06,,,
1651,02/11/2022 00:48:35.373,22240.640,637.712,2,3,0.00000,3.24832,0.00000,0.00000,0.00000,0.00000,0.00000,,-1.10636E-06,,,
1657,02/11/2022 00:50:35.377,22360.644,757.716,2,3,0.00000,3.24899,0.00000,0.00000,0.00000,0.00000,0.00000,,-9.562586E-06,,,
1663,02/11/2022 00:52:35.383,22480.650,877.722,2,3,0.00000,3.24943,0.00000,0.00000,0.00000,0.00000,0.00000,,1.106342E-05,,,
1669,02/11/2022 00:54:35.386,22600.653,997.725,2,3,0.00000,3.24626,0.00000,0.00000,0.00000,0.00000,0.00000,,-4.018424E-05,,,
1675,02/11/2022 00:56:35.389,22720.656,1117.728,2,3,0.00000,3.24476,0.00000,0.00000,0.00000,0.00000,0.00000,,-1.770161E-05,,,
1681,02/11/2022 00:58:35.392,22840.659,1237.731,2,3,0.00000,3.24253,0.00000,0.00000,0.00000,0.00000,0.00000,,3.872163E-06,,,
1687,02/11/2022 01:00:35.397,22960.664,1357.735,2,3,0.00000,3.24108,0.00000,0.00000,0.00000,0.00000,0.00000,,-4.701952E-06,,,
1693,02/11/2022 01:02:35.400,23080.667,1477.739,2,3,0.00000,3.24095,0.00000,0.00000,0.00000,0.00000,0.00000,,1.438244E-05,,,
1699,02/11/2022 01:04:35.404,23200.671,1597.742,2,3,0.00000,3.24205,0.00000,0.00000,0.00000,0.00000,0.00000,,4.784689E-05,,,
1705,02/11/2022 01:06:35.406,23320.673,1717.745,2,3,0.00000,3.24582,0.00000,0.00000,0.00000,0.00000,0.00000,,2.31952E-05,,,
1711,02/11/2022 01:08:35.410,23440.677,1837.749,2,3,0.00000,3.24831,0.00000,0.00000,0.00000,0.00000,0.00000,,-1.141912E-05,,,
1717,02/11/2022 01:10:35.413,23560.680,1957.752,2,3,0.00000,3.24832,0.00000,0.00000,0.00000,0.00000,0.00000,,-1.110293E-05,,,
1723,02/11/2022 01:12:35.418,23680.685,2077.757,2,3,0.00000,3.24492,0.00000,0.00000,0.00000,0.00000,0.00000,,2.504928E-05,,,
1729,02/11/2022 01:14:35.422,23800.689,2197.761,2,3,0.00000,3.24329,0.00000,0.00000,0.00000,0.00000,0.00000,,-5.524172E-05,,,
1735,02/11/2022 01:16:35.425,23920.692,2317.764,2,3,0.00000,3.24338,0.00000,0.00000,0.00000,0.00000,0.00000,,-1.501576E-06,,0,
1741,02/11/2022 01:18:35.430,24040.697,2437.768,2,3,0.00000,3.24412,0.00000,0.00000,0.00000,0.00000,0.00000,,3.204678E-05,,0,
1747,02/11/2022 01:20:35.433,24160.700,2557.771,2,3,0.00000,3.24388,0.00000,0.00000,0.00000,0.00000,0.00000,,-1.185366E-06,,0,
1753,02/11/2022 01:22:35.436,24280.703,2677.775,2,3,0.00000,3.24375,0.00000,0.00000,0.00000,0.00000,0.00000,,1.224888E-06,,0,
1759,02/11/2022 01:24:35.440,24400.707,2797.779,2,3,0.00000,3.24456,0.00000,0.00000,0.00000,0.00000,0.00000,,3.121438E-06,,0,
1765,02/11/2022 01:26:35.445,24520.712,2917.783,2,3,0.00000,3.24574,0.00000,0.00000,0.00000,0.00000,0.00000,,-7.310423E-06,,0,
1771,02/11/2022 01:28:35.451,24640.718,3037.790,2,3,0.00000,3.24564,0.00000,0.00000,0.00000,0.00000,0.00000,,-6.005954E-06,,0,
1777,02/11/2022 01:30:35.455,24760.722,3157.794,2,3,0.00000,3.24598,0.00000,0.00000,0.00000,0.00000,0.00000,,2.054566E-06,,0,
1783,02/11/2022 01:32:35.457,24880.724,3277.796,2,3,0.00000,3.24697,0.00000,0.00000,0.00000,0.00000,0.00000,,1.185376E-06,,0,
1789,02/11/2022 01:34:35.462,25000.729,3397.801,2,3,0.00000,3.24679,0.00000,0.00000,0.00000,0.00000,0.00000,,-1.48961E-05,,0,
1795,02/11/2022 01:36:35.465,25120.732,3517.803,2,3,0.00000,3.24616,0.00000,0.00000,0.00000,0.00000,0.00000,,1.185366E-07,,0,
1801,02/11/2022 01:37:57.745,25203.012,0.004,2,4,0.00000,3.30363,0.00000,0.00000,0.00000,0.00000,0.00000,,0.004837537,,,
1807,02/11/2022 01:37:57.825,25203.092,0.084,2,4,-0.00002,2.32871,-0.00006,0.00000,0.00000,0.00000,0.00000,,0.004837537,0,0,0
1813,02/11/2022 01:37:57.990,25203.257,0.107,2,5,0.00000,3.01545,0.00000,0.00000,0.00000,0.00000,0.00000,,,,,
1819,02/11/2022 01:37:58.102,25203.369,0.219,2,5,0.00000,3.08790,0.00000,0.00000,0.00000,0.00000,0.00000,,,,,
1825,02/11/2022 01:37:58.326,25203.593,0.443,2,5,0.00000,3.15323,0.00000,0.00000,0.00000,0.00000,0.00000,,,,,
1831,02/11/2022 01:37:59.211,25204.478,1.328,2,5,0.00000,3.21432,0.00000,0.00000,0.00000,0.00000,0.00000,,0.03250246,,,
1837,02/11/2022 01:39:21.393,25286.660,83.510,2,5,0.00000,3.24365,0.00000,0.00000,0.00000,0.00000,0.00000,,3.710226E-05,,,
1843,02/11/2022 01:41:21.399,25406.666,203.516,2,5,0.00000,3.24212,0.00000,0.00000,0.00000,0.00000,0.00000,,-3.911772E-05,,,
1849,02/11/2022 01:43:21.404,25526.671,323.521,2,5,0.00000,3.23994,0.00000,0.00000,0.00000,0.00000,0.00000,,-2.773619E-05,,,
1855,02/11/2022 01:45:21.408,25646.675,443.525,2,5,0.00000,3.23825,0.00000,0.00000,0.00000,0.00000,0.00000,,5.847805E-06,,,
1861,02/11/2022 01:47:21.410,25766.677,563.527,2,5,0.00000,3.23801,0.00000,0.00000,0.00000,0.00000,0.00000,,3.449443E-05,,,
1867,02/11/2022 01:49:21.415,25886.682,683.532,2,5,0.00000,3.24006,0.00000,0.00000,0.00000,0.00000,0.00000,,-3.87226E-06,,,
1873,02/11/2022 01:51:21.420,26006.687,803.537,2,5,0.00000,3.24072,0.00000,0.00000,0.00000,0.00000,0.00000,,-1.118204E-05,,,
1879,02/11/2022 01:53:21.424,26126.691,923.541,2,5,0.00000,3.24080,0.00000,0.00000,0.00000,0.00000,0.00000,,8.021176E-06,,,
1885,02/11/2022 01:55:21.429,26246.696,1043.547,2,5,0.00000,3.23924,0.00000,0.00000,0.00000,0.00000,0.00000,,-3.959155E-05,,,
1891,02/11/2022 01:57:21.434,26366.701,1163.551,2,5,0.00000,3.23569,0.00000,0.00000,0.00000,0.00000,0.00000,,-2.686896E-05,,,
1897,02/11/2022 01:59:21.438,26486.705,1283.556,2,5,0.00000,3.23063,0.00000,0.00000,0.00000,0.00000,0.00000,,-8.613731E-06,,,
1903,02/11/2022 02:01:21.443,26606.710,1403.560,2,5,0.00000,3.22677,0.00000,0.00000,0.00000,0.00000,0.00000,,-5.112963E-05,,,
1909,02/11/2022 02:03:21.448,26726.715,1523.565,2,5,0.00000,3.22445,0.00000,0.00000,0.00000,0.00000,0.00000,,-4.188293E-06,,,
1915,02/11/2022 02:05:21.453,26846.720,1643.570,2,5,0.00000,3.22149,0.00000,0.00000,0.00000,0.00000,0.00000,,-9.087881E-06,,,
1921,02/11/2022 02:07:21.458,26966.725,1763.575,2,5,0.00000,3.21858,0.00000,0.00000,0.00000,0.00000,0.00000,,-2.0507E-05,,,
1927,02/11/2022 02:09:21.465,27086.732,1883.582,2,5,0.00000,3.21355,0.00000,0.00000,0.00000,0.00000,0.00000,,-1.450086E-05,,,
1933,02/11/2022 02:11:21.468,27206.735,2003.585,2,5,0.00000,3.21029,0.00000,0.00000,0.00000,0.00000,0.00000,,-3.212368E-05,,,
1939,02/11/2022 02:13:21.472,27326.739,2123.590,2,5,0.00000,3.20388,0.00000,0.00000,0.00000,0.00000,0.00000,,-7.056937E-05,,,
1945,02/11/2022 02:15:17.568,27442.835,2239.685,2,5,0.00000,3.18873,0.00000,0.00000,0.00000,0.00000,0.00000,,0.000300897,,,
1951,02/11/2022 02:17:17.569,27562.836,2359.686,2,5,0.00000,3.19886,0.00000,0.00000,0.00000,0.00000,0.00000,,-9.246008E-06,,,
1957,02/11/2022 02:19:17.572,27682.839,2479.690,2,5,0.00000,3.19982,0.00000,0.00000,0.00000,0.00000,0.00000,,-2.311483E-05,,,
1963,02/11/2022 02:21:17.577,27802.844,2599.695,2,5,0.00000,3.19804,0.00000,0.00000,0.00000,0.00000,0.00000,,-1.916373E-05,,,
1969,02/11/2022 02:23:17.580,27922.847,2719.697,2,5,0.00000,3.19695,0.00000,0.00000,0.00000,0.00000,0.00000,,-2.109969E-05,,,
1975,02/11/2022 02:25:17.584,28042.851,2839.702,2,5,0.00000,3.19464,0.00000,0.00000,0.00000,0.00000,0.00000,,1.683234E-05,,,
1981,02/11/2022 02:27:17.589,28162.856,2959.706,2,5,0.00000,3.19465,0.00000,0.00000,0.00000,0.00000,0.00000,,-2.963415E-06,,,
1987,02/11/2022 02:29:17.593,28282.860,3079.710,2,5,0.00000,3.19734,0.00000,0.00000,0.00000,0.00000,0.00000,,8.336798E-06,,,
1993,02/11/2022 02:31:17.598,28402.865,3199.715,2,5,0.00000,3.19924,0.00000,0.00000,0.00000,0.00000,0.00000,,-7.507442E-07,,,
1999,02/11/2022 02:33:17.601,28522.868,3319.718,2,5,0.00000,3.19890,0.00000,0.00000,0.00000,0.00000,0.00000,,-1.335512E-05,,,
2005,02/11/2022 02:35:17.605,28642.872,3439.722,2,5,0.00000,3.19652,0.00000,0.00000,0.00000,0.00000,0.00000,,-4.753081E-05,,,
2011,02/11/2022 02:37:17.609,28762.876,3559.727,2,5,0.00000,3.19464,0.00000,0.00000,0.00000,0.00000,0.00000,,-3.27954E-06,,,
2017,02/11/2022 02:37:57.978,28803.245,0.012,3,7,0.00000,3.22354,0.00000,0.00000,0.00000,0.00000,0.00000,,,,,
2023,02/11/2022 02:37:58.080,28803.347,0.007,3,8,-0.00013,-7.60717,0.00098,0.00000,0.00000,0.00000,0.00000,,-102.1072,0,0,0
2029,02/11/2022 02:37:58.189,28803.456,0.082,4,7,0.00009,7.61558,0.00068,0.00000,0.00000,0.00000,0.00000,,,,,
2035,02/11/2022 02:37:58.226,28803.493,0.118,4,7,0.00009,4.48987,0.00039,0.00000,0.00000,0.00000,0.00000,,149.2927,0,1.174307E-10,8.515664E+09
2041,02/11/2022 02:37:58.297,28803.564,0.016,5,7,0.00022,5.97732,0.00129,0.00000,0.00000,0.00000,0.00000,,,,,
2047,02/11/2022 02:37:58.420,28803.687,0.007,6,10,-0.00002,-0.07068,0.00000,0.00000,0.00000,0.00000,0.00000,,-70.80819,,,
2053,02/11/2022 02:37:58.519,28803.786,0.005,6,11,-0.00017,-7.60588,0.00131,0.00000,0.00000,0.00000,0.00000,,142.9276,0,0,0
2059,02/11/2022 02:37:58.623,28803.890,0.076,7,10,0.00008,7.61597,0.00057,0.00000,0.00000,0.00000,0.00000,,,,,
2065,02/11/2022 02:37:58.695,28803.962,0.008,8,10,-0.00001,0.11956,0.00000,0.00000,0.00000,0.00000,0.00000,,,,,
2071,02/11/2022 02:37:58.792,28804.059,0.006,8,11,-0.00015,-7.60688,0.00115,0.00000,0.00000,0.00000,0.00000,,-6.683694,0,0,0
2077,02/11/2022 02:37:58.894,28804.161,0.073,9,13,0.00007,7.61699,0.00056,0.00000,0.00000,0.00000,0.00000,,,,,
2083,02/11/2022 02:37:58.964,28804.231,0.009,10,13,-0.00001,0.39933,-0.00001,0.00000,0.00000,0.00000,0.00000,,,,,
2089,02/11/2022 02:37:59.065,28804.332,0.003,10,14,-0.00018,-7.60715,0.00141,0.00000,0.00000,0.00000,0.00000,,,,,
2095,02/11/2022 02:37:59.115,28804.382,0.019,11,13,0.00015,4.66852,0.00069,0.00000,0.00000,0.00000,0.00000,,,,,
2101,02/11/2022 02:37:59.238,28804.505,0.007,12,16,-0.00002,-0.13306,0.00000,0.00000,0.00000,0.00000,0.00000,,-76.81667,,,
2107,02/11/2022 02:37:59.339,28804.606,0.006,12,17,-0.00014,-7.60697,0.00106,0.00000,0.00000,0.00000,0.00000,,142.0022,,,
2113,02/11/2022 02:37:59.390,28804.657,0.019,13,16,0.00017,5.08642,0.00084,0.00000,0.00000,0.00000,0.00000,,,,,
2119,02/11/2022 02:37:59.488,28804.755,0.001,14,18,-0.00012,-7.60709,0.00088,0.00000,0.00000,0.00000,0.00000,,-47.48109,0,0,0
2125,02/11/2022 02:37:59.589,28804.856,0.077,14,16,0.00008,7.61584,0.00060,0.00000,0.00000,0.00000,0.00000,,-28.812,0,0,0
2131,02/11/2022 02:37:59.664,28804.931,0.018,15,19,0.00017,5.06855,0.00087,0.00000,0.00000,0.00000,0.00000,,,,,
2135,02/11/2022 02:37:59.888,28805.155,0.161,15,20,0.00000,2.94873,0.00000,0.00000,0.00000,0.00000,0.00000,,-27.78798,0,0,0