File: Data/Data_220201_NMC/Martin_0201_Channel_34_IV&Aux__Wb_1.CSV
Data_Point,Date_Time,Test_Time(s),Step_Time(s),Cycle_Index,Step_Index,Current(A),Voltage(V),Power(W),Charge_Capacity(Ah),Discharge_Capacity(Ah),Charge_Energy(Wh),Discharge_Energy(Wh),ACR(Ohm),dV/dt(V/s),Internal_Resistance(Ohm),dQ/dV(Ah/V),dV/dQ(V/Ah)
1,02/02/2022 17:30:48.598,20.002,20.001,1,1,0.00000,3.38513,0.00000,0.00000,0.00000,0.00000,0.00000,,-0.02266372,,,
3,02/02/2022 17:31:28.600,60.003,60.003,1,1,0.00000,3.38635,0.00000,0.00000,0.00000,0.00000,0.00000,,0.01831676,,,
5,02/02/2022 17:32:08.601,100.004,100.004,1,1,0.00000,3.38990,0.00000,0.00000,0.00000,0.00000,0.00000,,0.01309458,,,
7,02/02/2022 17:32:48.603,140.006,140.006,1,1,0.00000,3.38652,0.00000,0.00000,0.00000,0.00000,0.00000,,0.01094755,,0,0
9,02/02/2022 17:33:28.604,180.007,180.007,1,1,0.00000,3.38816,0.00000,0.00000,0.00000,0.00000,0.00000,,-0.02026026,,,
11,02/02/2022 17:34:08.605,220.008,220.008,1,1,0.00000,3.38781,0.00000,0.00000,0.00000,0.00000,0.00000,,-0.01491579,,,
13,02/02/2022 17:34:48.606,260.009,260.009,1,1,0.00000,3.38818,0.00000,0.00000,0.00000,0.00000,0.00000,,0.0177177,,0,0
15,02/02/2022 17:35:28.608,300.011,300.011,1,1,0.00000,3.38725,0.00000,0.00000,0.00000,0.00000,0.00000,,0.01831716,,,
17,02/02/2022 17:36:08.609,340.012,340.012,1,1,0.00000,3.38623,0.00000,0.00000,0.00000,0.00000,0.00000,,-0.02624404,,,
19,02/02/2022 17:36:48.611,380.014,380.014,1,1,0.00000,3.38927,0.00000,0.00000,0.00000,0.00000,0.00000,,0.01869856,,0,0
21,02/02/2022 17:37:28.612,420.015,420.015,1,1,0.00000,3.38617,0.00000,0.00000,0.00000,0.00000,0.00000,,1.114244E-05,,,
23,02/02/2022 17:38:08.614,460.017,460.017,1,1,0.00000,3.38683,0.00000,0.00000,0.00000,0.00000,0.00000,,-0.01489427,,,
25,02/02/2022 17:38:48.616,500.019,500.019,1,1,0.00000,3.38846,0.00000,0.00000,0.00000,0.00000,0.00000,,0.01711268,,0,0
27,02/02/2022 17:39:28.617,540.020,540.020,1,1,0.00000,3.38542,0.00000,0.00000,0.00000,0.00000,0.00000,,0.02287585,,,
29,02/02/2022 17:40:08.619,580.022,580.022,1,1,0.00000,3.38509,0.00000,0.00000,0.00000,0.00000,0.00000,,0.006752667,,,
31,02/02/2022 17:40:48.623,620.026,620.026,1,1,0.00000,3.38414,0.00000,0.00000,0.00000,0.00000,0.00000,,-5.464583E-05,,0,0
33,02/02/2022 17:41:28.626,660.029,660.029,1,1,0.00000,3.38350,0.00000,0.00000,0.00000,0.00000,0.00000,,0.02494007,,,
35,02/02/2022 17:42:08.627,700.030,700.030,1,1,0.00000,3.38649,0.00000,0.00000,0.00000,0.00000,0.00000,,-0.0002153405,,,
37,02/02/2022 17:42:48.629,740.032,740.032,1,1,0.00000,3.38272,0.00000,0.00000,0.00000,0.00000,0.00000,,-0.02070781,,0,0
39,02/02/2022 17:43:28.631,780.034,780.034,1,1,0.00000,3.38233,0.00000,0.00000,0.00000,0.00000,0.00000,,-0.01861017,,,
41,02/02/2022 17:44:08.632,820.036,820.035,1,1,0.00000,3.38075,0.00000,0.00000,0.00000,0.00000,0.00000,,-0.02192032,,,
43,02/02/2022 17:44:48.634,860.038,860.037,1,1,0.00000,3.37870,0.00000,0.00000,0.00000,0.00000,0.00000,,-6.598646E-06,,0,0
45,02/02/2022 17:45:28.635,900.038,900.038,1,1,0.00000,3.37846,0.00000,0.00000,0.00000,0.00000,0.00000,,-0.01497111,,,
47,02/02/2022 17:46:08.637,940.040,940.040,1,1,0.00000,3.37653,0.00000,0.00000,0.00000,0.00000,0.00000,,-1.019356E-05,,,
49,02/02/2022 17:46:48.638,980.041,980.041,1,1,0.00000,3.37531,0.00000,0.00000,0.00000,0.00000,0.00000,,0.02577657,,0,0
51,02/02/2022 17:47:28.641,1020.044,1020.044,1,1,0.00000,3.37477,0.00000,0.00000,0.00000,0.00000,0.00000,,1.750405E-05,,,
53,02/02/2022 17:48:08.643,1060.046,1060.046,1,1,0.00000,3.37765,0.00000,0.00000,0.00000,0.00000,0.00000,,-0.01349091,,,
55,02/02/2022 17:48:48.645,1100.048,1100.048,1,1,0.00000,3.37170,0.00000,0.00000,0.00000,0.00000,0.00000,,0.01751164,,0,0
57,02/02/2022 17:49:28.645,1140.049,1140.048,1,1,0.00000,3.37059,0.00000,0.00000,0.00000,0.00000,0.00000,,0.009259359,,,
59,02/02/2022 17:50:08.648,1180.051,1180.051,1,1,0.00000,3.36932,0.00000,0.00000,0.00000,0.00000,0.00000,,0.01804735,,,
61,02/02/2022 17:50:48.651,1220.054,1220.054,1,1,0.00000,3.36744,0.00000,0.00000,0.00000,0.00000,0.00000,,-3.394098E-05,,0,
63,02/02/2022 17:51:28.653,1260.056,1260.056,1,1,0.00000,3.36732,0.00000,0.00000,0.00000,0.00000,0.00000,,-0.01578179,,,
65,02/02/2022 17:52:08.653,1300.056,1300.056,1,1,0.00000,3.36548,0.00000,0.00000,0.00000,0.00000,0.00000,,-0.02055863,,,
67,02/02/2022 17:52:48.655,1340.058,1340.058,1,1,0.00000,3.36433,0.00000,0.00000,0.00000,0.00000,0.00000,,-1.304011E-06,,0,
69,02/02/2022 17:53:28.658,1380.061,1380.061,1,1,0.00000,3.36106,0.00000,0.00000,0.00000,0.00000,0.00000,,0.02036982,,,
71,02/02/2022 17:54:08.662,1420.065,1420.065,1,1,0.00000,3.35921,0.00000,0.00000,0.00000,0.00000,0.00000,,-7.855025E-05,,,
73,02/02/2022 17:54:48.665,1460.068,1460.068,1,1,0.00000,3.35692,0.00000,0.00000,0.00000,0.00000,0.00000,,-0.01443757,,0,
75,02/02/2022 17:55:28.668,1500.071,1500.071,1,1,0.00000,3.35919,0.00000,0.00000,0.00000,0.00000,0.00000,,0.01359055,,,
77,02/02/2022 17:56:08.670,1540.073,1540.073,1,1,0.00000,3.35254,0.00000,0.00000,0.00000,0.00000,0.00000,,-0.01941685,,,
79,02/02/2022 17:56:48.672,1580.075,1580.075,1,1,0.00000,3.35544,0.00000,0.00000,0.00000,0.00000,0.00000,,-0.000889176,,0,
81,02/02/2022 17:57:28.676,1620.080,1620.079,1,1,0.00000,3.35144,0.00000,0.00000,0.00000,0.00000,0.00000,,0.02065471,,,
83,02/02/2022 17:58:08.678,1660.081,1660.081,1,1,0.00000,3.35039,0.00000,0.00000,0.00000,0.00000,0.00000,,3.287224E-05,,,
85,02/02/2022 17:58:48.681,1700.084,1700.084,1,1,0.00000,3.34794,0.00000,0.00000,0.00000,0.00000,0.00000,,-0.01252369,,0,
87,02/02/2022 17:59:28.683,1740.086,1740.086,1,1,0.00000,3.34761,0.00000,0.00000,0.00000,0.00000,0.00000,,-0.02253151,,,
89,02/02/2022 18:00:08.685,1780.088,1780.088,1,1,0.00000,3.34433,0.00000,0.00000,0.00000,0.00000,0.00000,,-0.0001038441,,,
91,02/02/2022 18:00:48.687,1820.090,1820.090,1,1,0.00000,3.34461,0.00000,0.00000,0.00000,0.00000,0.00000,,-0.02286598,,0,
93,02/02/2022 18:01:28.689,1860.092,1860.092,1,1,0.00000,3.34198,0.00000,0.00000,0.00000,0.00000,0.00000,,0.01685607,,,
95,02/02/2022 18:02:08.692,1900.095,1900.095,1,1,0.00000,3.33879,0.00000,0.00000,0.00000,0.00000,0.00000,,-0.0237716,,,
97,02/02/2022 18:02:48.693,1940.097,1940.096,1,1,0.00000,3.33300,0.00000,0.00000,0.00000,0.00000,0.00000,,-0.01658344,,0,
99,02/02/2022 18:03:28.695,1980.098,1980.098,1,1,0.00000,3.33556,0.00000,0.00000,0.00000,0.00000,0.00000,,0.03117952,,,
101,02/02/2022 18:04:08.697,2020.100,2020.100,1,1,0.00000,3.33254,0.00000,0.00000,0.00000,0.00000,0.00000,,-0.000612007,,,
103,02/02/2022 18:04:48.699,2060.102,2060.102,1,1,0.00000,3.32892,0.00000,0.00000,0.00000,0.00000,0.00000,,0.01910432,,0,
105,02/02/2022 18:05:28.700,2100.103,2100.103,1,1,0.00000,3.32562,0.00000,0.00000,0.00000,0.00000,0.00000,,-0.01762764,,,
107,02/02/2022 18:06:08.702,2140.105,2140.105,1,1,0.00000,3.32454,0.00000,0.00000,0.00000,0.00000,0.00000,,0.02755285,,,
109,02/02/2022 18:06:48.703,2180.106,2180.106,1,1,0.00000,3.32231,0.00000,0.00000,0.00000,0.00000,0.00000,,-0.02032216,,0,
111,02/02/2022 18:07:28.704,2220.107,2220.107,1,1,0.00000,3.32172,0.00000,0.00000,0.00000,0.00000,0.00000,,0.01427258,,,
113,02/02/2022 18:08:08.707,2260.110,2260.110,1,1,0.00000,3.31752,0.00000,0.00000,0.00000,0.00000,0.00000,,0.02748587,,,
115,02/02/2022 18:08:48.709,2300.112,2300.112,1,1,0.00000,3.31645,0.00000,0.00000,0.00000,0.00000,0.00000,,-0.01913053,,0,
117,02/02/2022 18:09:28.711,2340.114,2340.114,1,1,0.00000,3.31270,0.00000,0.00000,0.00000,0.00000,0.00000,,0.01924048,,,
119,02/02/2022 18:10:08.712,2380.116,2380.115,1,1,0.00000,3.31117,0.00000,0.00000,0.00000,0.00000,0.00000,,-2.528802E-06,,,
121,02/02/2022 18:10:48.715,2420.118,2420.118,1,1,0.00000,3.30820,0.00000,0.00000,0.00000,0.00000,0.00000,,0.01741544,,0,
123,02/02/2022 18:11:28.716,2460.119,2460.119,1,1,0.00000,3.30633,0.00000,0.00000,0.00000,0.00000,0.00000,,-0.02889761,,,
125,02/02/2022 18:12:08.717,2500.121,2500.120,1,1,0.00000,3.30159,0.00000,0.00000,0.00000,0.00000,0.00000,,0.03312096,,,
127,02/02/2022 18:12:48.720,2540.123,2540.123,1,1,0.00000,3.30205,0.00000,0.00000,0.00000,0.00000,0.00000,,-0.02064463,,,
129,02/02/2022 18:13:28.721,2580.124,2580.124,1,1,0.00000,3.29664,0.00000,0.00000,0.00000,0.00000,0.00000,,-0.02096206,,,
131,02/02/2022 18:14:08.723,2620.127,2620.126,1,1,0.00000,3.29547,0.00000,0.00000,0.00000,0.00000,0.00000,,0.0191767,,,
133,02/02/2022 18:14:48.727,2660.130,2660.130,1,1,0.00000,3.29389,0.00000,0.00000,0.00000,0.00000,0.00000,,-5.587534E-05,,,
135,02/02/2022 18:15:28.729,2700.132,2700.132,1,1,0.00000,3.29206,0.00000,0.00000,0.00000,0.00000,0.00000,,-0.01232076,,,
137,02/02/2022 18:16:08.731,2740.134,2740.134,1,1,0.00000,3.28970,0.00000,0.00000,0.00000,0.00000,0.00000,,0.01267089,,,
139,02/02/2022 18:16:48.733,2780.137,2780.136,1,1,0.00000,3.28442,0.00000,0.00000,0.00000,0.00000,0.00000,,0.01761135,,,
141,02/02/2022 18:17:28.737,2820.140,2820.140,1,1,0.00000,3.28269,0.00000,0.00000,0.00000,0.00000,0.00000,,-0.01621964,,,
143,02/02/2022 18:18:08.738,2860.141,2860.141,1,1,0.00000,3.28221,0.00000,0.00000,0.00000,0.00000,0.00000,,0.0227832,,,
145,02/02/2022 18:18:48.740,2900.143,2900.143,1,1,0.00000,3.27824,0.00000,0.00000,0.00000,0.00000,0.00000,,-0.01723331,,,
147,02/02/2022 18:19:28.741,2940.145,2940.144,1,1,0.00000,3.27653,0.00000,0.00000,0.00000,0.00000,0.00000,,-1.912406E-05,,,
149,02/02/2022 18:20:08.743,2980.146,2980.146,1,1,0.00000,3.27475,0.00000,0.00000,0.00000,0.00000,0.00000,,0.01724186,,,
151,02/02/2022 18:20:48.745,3020.148,3020.148,1,1,0.00000,3.27173,0.00000,0.00000,0.00000,0.00000,0.00000,,-0.0001907049,,,
153,02/02/2022 18:21:28.746,3060.149,3060.149,1,1,0.00000,3.26927,0.00000,0.00000,0.00000,0.00000,0.00000,,0.01820855,,,
155,02/02/2022 18:22:08.748,3100.151,3100.151,1,1,0.00000,3.26405,0.00000,0.00000,0.00000,0.00000,0.00000,,0.01862543,,,
157,02/02/2022 18:22:48.751,3140.154,3140.154,1,1,0.00000,3.26682,0.00000,0.00000,0.00000,0.00000,0.00000,,-0.01330848,,,
159,02/02/2022 18:23:28.752,3180.156,3180.155,1,1,0.00000,3.26265,0.00000,0.00000,0.00000,0.00000,0.00000,,-0.0271553,,,
161,02/02/2022 18:24:08.755,3220.158,3220.158,1,1,0.00000,3.26171,0.00000,0.00000,0.00000,0.00000,0.00000,,-0.02477274,,,
163,02/02/2022 18:24:48.757,3260.160,3260.160,1,1,0.00000,3.25834,0.00000,0.00000,0.00000,0.00000,0.00000,,-0.0146469,,,
165,02/02/2022 18:25:28.758,3300.161,3300.161,1,1,0.00000,3.25736,0.00000,0.00000,0.00000,0.00000,0.00000,,-0.02643386,,,
167,02/02/2022 18:26:08.761,3340.164,3340.164,1,1,0.00000,3.25747,0.00000,0.00000,0.00000,0.00000,0.00000,,0.01337707,,,
169,02/02/2022 18:26:48.763,3380.166,3380.166,1,1,0.00000,3.25217,0.00000,0.00000,0.00000,0.00000,0.00000,,0.02771446,,,
171,02/02/2022 18:27:28.765,3420.168,3420.168,1,1,0.00000,3.25265,0.00000,0.00000,0.00000,0.00000,0.00000,,0.0136892,,,
173,02/02/2022 18:28:08.766,3460.169,3460.169,1,1,0.00000,3.25013,0.00000,0.00000,0.00000,0.00000,0.00000,,-0.01767131,,,
175,02/02/2022 18:28:48.767,3500.170,3500.170,1,1,0.00000,3.24778,0.00000,0.00000,0.00000,0.00000,0.00000,,0.01862232,,,
177,02/02/2022 18:29:28.768,3540.171,3540.171,1,1,0.00000,3.24719,0.00000,0.00000,0.00000,0.00000,0.00000,,0.02605342,,,
179,02/02/2022 18:30:08.770,3580.173,3580.173,1,1,0.00000,3.24433,0.00000,0.00000,0.00000,0.00000,0.00000,,-0.01447734,,,
181,02/02/2022 18:30:48.773,3620.176,3620.176,1,1,0.00000,3.24280,0.00000,0.00000,0.00000,0.00000,0.00000,,-0.01413684,,,
183,02/02/2022 18:31:28.775,3660.178,3660.178,1,1,0.00000,3.23887,0.00000,0.00000,0.00000,0.00000,0.00000,,-0.0001837158,,,
185,02/02/2022 18:32:08.778,3700.181,3700.181,1,1,0.00000,3.24010,0.00000,0.00000,0.00000,0.00000,0.00000,,-0.005682521,,,
187,02/02/2022 18:32:48.780,3740.183,3740.183,1,1,0.00000,3.23978,0.00000,0.00000,0.00000,0.00000,0.00000,,-0.01240332,,,
189,02/02/2022 18:33:28.781,3780.185,3780.184,1,1,0.00000,3.23841,0.00000,0.00000,0.00000,0.00000,0.00000,,0.01612924,,,
191,02/02/2022 18:34:08.784,3820.187,3820.187,1,1,0.00000,3.23553,0.00000,0.00000,0.00000,0.00000,0.00000,,0.01909414,,,
193,02/02/2022 18:34:48.785,3860.188,3860.188,1,1,0.00000,3.23388,0.00000,0.00000,0.00000,0.00000,0.00000,,-0.0233104,,,
195,02/02/2022 18:35:28.788,3900.191,3900.191,1,1,0.00000,3.23260,0.00000,0.00000,0.00000,0.00000,0.00000,,-0.02641599,,,
197,02/02/2022 18:36:08.792,3940.195,3940.195,1,1,0.00000,3.23184,0.00000,0.00000,0.00000,0.00000,0.00000,,2.532774E-05,,,
199,02/02/2022 18:36:48.793,3980.196,3980.196,1,1,0.00000,3.23218,0.00000,0.00000,0.00000,0.00000,0.00000,,0.01731147,,,
201,02/02/2022 18:37:28.795,4020.198,4020.198,1,1,0.00000,3.22995,0.00000,0.00000,0.00000,0.00000,0.00000,,6.71713E-06,,,
203,02/02/2022 18:38:08.796,4060.200,4060.199,1,1,0.00000,3.22784,0.00000,0.00000,0.00000,0.00000,0.00000,,-7.858456E-05,,,
205,02/02/2022 18:38:48.797,4100.201,4100.200,1,1,0.00000,3.22769,0.00000,0.00000,0.00000,0.00000,0.00000,,0.001430618,,,
207,02/02/2022 18:39:28.799,4140.202,4140.202,1,1,0.00000,3.22622,0.00000,0.00000,0.00000,0.00000,0.00000,,7.46731E-06,,,
209,02/02/2022 18:40:08.801,4180.204,4180.204,1,1,0.00000,3.22657,0.00000,0.00000,0.00000,0.00000,0.00000,,-0.0229634,,,
211,02/02/2022 18:40:48.803,4220.206,4220.206,1,1,0.00000,3.22422,0.00000,0.00000,0.00000,0.00000,0.00000,,0.01703936,,,
213,02/02/2022 18:41:28.804,4260.207,4260.207,1,1,0.00000,3.22222,0.00000,0.00000,0.00000,0.00000,0.00000,,0.01840164,,,
215,02/02/2022 18:42:08.805,4300.208,4300.208,1,1,0.00000,3.22369,0.00000,0.00000,0.00000,0.00000,0.00000,,-0.01735753,,,
217,02/02/2022 18:42:48.808,4340.211,4340.211,1,1,0.00000,3.22509,0.00000,0.00000,0.00000,0.00000,0.00000,,0.02020704,,,
219,02/02/2022 18:43:28.810,4380.213,4380.213,1,1,0.00000,3.22437,0.00000,0.00000,0.00000,0.00000,0.00000,,-0.02080219,,,
221,02/02/2022 18:44:08.813,4420.216,4420.216,1,1,0.00000,3.22416,0.00000,0.00000,0.00000,0.00000,0.00000,,-0.01921084,,,
223,02/02/2022 18:44:48.813,4460.217,4460.216,1,1,0.00000,3.22582,0.00000,0.00000,0.00000,0.00000,0.00000,,-0.01646837,,,
225,02/02/2022 18:45:28.817,4500.221,4500.220,1,1,0.00000,3.22302,0.00000,0.00000,0.00000,0.00000,0.00000,,0.01488787,,,
227,02/02/2022 18:46:08.818,4540.221,4540.221,1,1,0.00000,3.22202,0.00000,0.00000,0.00000,0.00000,0.00000,,-3.39788E-06,,,
229,02/02/2022 18:46:48.822,4580.225,4580.225,1,1,0.00000,3.22122,0.00000,0.00000,0.00000,0.00000,0.00000,,2.797487E-05,,,
231,02/02/2022 18:47:28.823,4620.226,4620.226,1,1,0.00000,3.22244,0.00000,0.00000,0.00000,0.00000,0.00000,,-4.219658E-05,,,
233,02/02/2022 18:48:08.825,4660.228,4660.228,1,1,0.00000,3.21768,0.00000,0.00000,0.00000,0.00000,0.00000,,0.01880942,,,
235,02/02/2022 18:48:48.826,4700.229,4700.229,1,1,0.00000,3.22207,0.00000,0.00000,0.00000,0.00000,0.00000,,-2.513184E-05,,,
237,02/02/2022 18:49:28.827,4740.230,4740.230,1,1,0.00000,3.22098,0.00000,0.00000,0.00000,0.00000,0.00000,,1.291963E-05,,,
239,02/02/2022 18:50:08.828,4780.231,4780.231,1,1,0.00000,3.22008,0.00000,0.00000,0.00000,0.00000,0.00000,,0.02628179,,,
241,02/02/2022 18:50:48.828,4820.232,4820.231,1,1,0.00000,3.22224,0.00000,0.00000,0.00000,0.00000,0.00000,,0.01979992,,,
243,02/02/2022 18:51:28.829,4860.233,4860.232,1,1,0.00000,3.22125,0.00000,0.00000,0.00000,0.00000,0.00000,,-0.01000664,,,
245,02/02/2022 18:52:08.832,4900.235,4900.235,1,1,0.00000,3.21982,0.00000,0.00000,0.00000,0.00000,0.00000,,-0.02108021,,,
247,02/02/2022 18:52:48.834,4940.237,4940.237,1,1,0.00000,3.21980,0.00000,0.00000,0.00000,0.00000,0.00000,,8.139648E-05,,,
249,02/02/2022 18:53:28.836,4980.239,4980.239,1,1,0.00000,3.22173,0.00000,0.00000,0.00000,0.00000,0.00000,,0.02089459,,0,
251,02/02/2022 18:54:08.837,5020.240,5020.240,1,1,0.00000,3.22197,0.00000,0.00000,0.00000,0.00000,0.00000,,-0.01878411,,,
253,02/02/2022 18:54:48.839,5060.242,5060.242,1,1,0.00000,3.22076,0.00000,0.00000,0.00000,0.00000,0.00000,,-3.733965E-05,,,
255,02/02/2022 18:55:28.841,5100.244,5100.244,1,1,0.00000,3.22548,0.00000,0.00000,0.00000,0.00000,0.00000,,-0.02257895,,0,
257,02/02/2022 18:56:08.843,5140.246,5140.246,1,1,0.00000,3.22346,0.00000,0.00000,0.00000,0.00000,0.00000,,-3.78508E-05,,,
259,02/02/2022 18:56:48.847,5180.250,5180.250,1,1,0.00000,3.22546,0.00000,0.00000,0.00000,0.00000,0.00000,,3.797154E-05,,,
261,02/02/2022 18:57:28.849,5220.252,5220.252,1,1,0.00000,3.22935,0.00000,0.00000,0.00000,0.00000,0.00000,,-0.02516972,,0,
263,02/02/2022 18:58:08.852,5260.255,5260.255,1,1,0.00000,3.22737,0.00000,0.00000,0.00000,0.00000,0.00000,,-0.02159742,,,
265,02/02/2022 18:58:48.855,5300.258,5300.258,1,1,0.00000,3.22557,0.00000,0.00000,0.00000,0.00000,0.00000,,-0.01343868,,,
267,02/02/2022 18:59:28.857,5340.260,5340.260,1,1,0.00000,3.22303,0.00000,0.00000,0.00000,0.00000,0.00000,,-0.0229773,,0,
269,02/02/2022 19:00:08.859,5380.262,5380.262,1,1,0.00000,3.22634,0.00000,0.00000,0.00000,0.00000,0.00000,,3.192612E-05,,,
271,02/02/2022 19:00:48.861,5420.264,5420.264,1,1,0.00000,3.22797,0.00000,0.00000,0.00000,0.00000,0.00000,,-0.01939086,,,
273,02/02/2022 19:01:28.864,5460.267,5460.267,1,1,0.00000,3.22817,0.00000,0.00000,0.00000,0.00000,0.00000,,-0.02731992,,0,
275,02/02/2022 19:02:08.865,5500.269,5500.268,1,1,0.00000,3.23018,0.00000,0.00000,0.00000,0.00000,0.00000,,0.0183366,,,
277,02/02/2022 19:02:48.867,5540.271,5540.270,1,1,0.00000,3.22731,0.00000,0.00000,0.00000,0.00000,0.00000,,-0.02541981,,,
279,02/02/2022 19:03:28.869,5580.272,5580.272,1,1,0.00000,3.23285,0.00000,0.00000,0.00000,0.00000,0.00000,,-0.0147223,,0,
281,02/02/2022 19:04:08.870,5620.273,5620.273,1,1,0.00000,3.22941,0.00000,0.00000,0.00000,0.00000,0.00000,,7.957361E-05,,,
283,02/02/2022 19:04:48.871,5660.274,5660.274,1,1,0.00000,3.23202,0.00000,0.00000,0.00000,0.00000,0.00000,,0.01700522,,,
285,02/02/2022 19:05:28.874,5700.277,5700.277,1,1,0.00000,3.23304,0.00000,0.00000,0.00000,0.00000,0.00000,,-0.02267253,,0,
287,02/02/2022 19:06:08.875,5740.278,5740.278,1,1,0.00000,3.23407,0.00000,0.00000,0.00000,0.00000,0.00000,,0.02291857,,,
289,02/02/2022 19:06:48.876,5780.279,5780.279,1,1,0.00000,3.23726,0.00000,0.00000,0.00000,0.00000,0.00000,,6.622738E-05,,,
291,02/02/2022 19:07:28.877,5820.281,5820.280,1,1,0.00000,3.23982,0.00000,0.00000,0.00000,0.00000,0.00000,,0.01197522,,0,
293,02/02/2022 19:08:08.880,5860.283,5860.283,1,1,0.00000,3.23910,0.00000,0.00000,0.00000,0.00000,0.00000,,0.02018043,,,
295,02/02/2022 19:08:48.881,5900.284,5900.284,1,1,0.00000,3.24159,0.00000,0.00000,0.00000,0.00000,0.00000,,6.321533E-07,,,
297,02/02/2022 19:09:28.881,5940.284,5940.284,1,1,0.00000,3.24248,0.00000,0.00000,0.00000,0.00000,0.00000,,-0.01375263,,0,
299,02/02/2022 19:10:08.883,5980.286,5980.286,1,1,0.00000,3.24167,0.00000,0.00000,0.00000,0.00000,0.00000,,-0.01834509,,,
301,02/02/2022 19:10:48.885,6020.288,6020.288,1,1,0.00000,3.24465,0.00000,0.00000,0.00000,0.00000,0.00000,,0.01803033,,,
303,02/02/2022 19:11:28.887,6060.290,6060.290,1,1,0.00000,3.24707,0.00000,0.00000,0.00000,0.00000,0.00000,,0.0001465419,,0,
305,02/02/2022 19:12:08.889,6100.292,6100.292,1,1,0.00000,3.24811,0.00000,0.00000,0.00000,0.00000,0.00000,,-0.02524727,,,
307,02/02/2022 19:12:48.889,6140.293,6140.292,1,1,0.00000,3.24962,0.00000,0.00000,0.00000,0.00000,0.00000,,0.01841984,,,
309,02/02/2022 19:13:28.891,6180.294,6180.294,1,1,0.00000,3.25384,0.00000,0.00000,0.00000,0.00000,0.00000,,-0.02910694,,0,
311,02/02/2022 19:14:08.893,6220.296,6220.296,1,1,0.00000,3.25361,0.00000,0.00000,0.00000,0.00000,0.00000,,-0.02351321,,,
313,02/02/2022 19:14:48.893,6260.296,6260.296,1,1,0.00000,3.25684,0.00000,0.00000,0.00000,0.00000,0.00000,,0.01386483,,,
315,02/02/2022 19:15:28.894,6300.297,6300.297,1,1,0.00000,3.25874,0.00000,0.00000,0.00000,0.00000,0.00000,,-0.01477344,,0,
317,02/02/2022 19:16:08.897,6340.300,6340.300,1,1,0.00000,3.26014,0.00000,0.00000,0.00000,0.00000,0.00000,,-0.02266597,,,
319,02/02/2022 19:16:48.899,6380.302,6380.302,1,1,0.00000,3.26244,0.00000,0.00000,0.00000,0.00000,0.00000,,0.02016979,,,
321,02/02/2022 19:17:28.900,6420.303,6420.303,1,1,0.00000,3.26614,0.00000,0.00000,0.00000,0.00000,0.00000,,0.01719597,,0,
323,02/02/2022 19:18:08.904,6460.307,6460.307,1,1,0.00000,3.26667,0.00000,0.00000,0.00000,0.00000,0.00000,,4.038414E-05,,,
325,02/02/2022 19:18:48.904,6500.307,6500.307,1,1,0.00000,3.26720,0.00000,0.00000,0.00000,0.00000,0.00000,,-5.970343E-05,,,
327,02/02/2022 19:19:28.906,6540.309,6540.309,1,1,0.00000,3.27119,0.00000,0.00000,0.00000,0.00000,0.00000,,4.990722E-05,,0,
329,02/02/2022 19:20:08.907,6580.311,6580.310,1,1,0.00000,3.27172,0.00000,0.00000,0.00000,0.00000,0.00000,,0.01359055,,,
331,02/02/2022 19:20:48.909,6620.313,6620.312,1,1,0.00000,3.27276,0.00000,0.00000,0.00000,0.00000,0.00000,,0.02061991,,,
333,02/02/2022 19:21:28.911,6660.314,6660.314,1,1,0.00000,3.27498,0.00000,0.00000,0.00000,0.00000,0.00000,,0.01937895,,0,
335,02/02/2022 19:22:08.914,6700.317,6700.317,1,1,0.00000,3.28080,0.00000,0.00000,0.00000,0.00000,0.00000,,0.01355201,,,
337,02/02/2022 19:22:48.916,6740.319,6740.319,1,1,0.00000,3.28227,0.00000,0.00000,0.00000,0.00000,0.00000,,4.239694E-05,,,
339,02/02/2022 19:23:28.917,6780.320,6780.320,1,1,0.00000,3.28234,0.00000,0.00000,0.00000,0.00000,0.00000,,-0.02177566,,0,
341,02/02/2022 19:24:08.919,6820.322,6820.322,1,1,0.00000,3.28840,0.00000,0.00000,0.00000,0.00000,0.00000,,0.01476401,,,
343,02/02/2022 19:24:48.921,6860.324,6860.324,1,1,0.00000,3.28636,0.00000,0.00000,0.00000,0.00000,0.00000,,-5.852193E-05,,,
345,02/02/2022 19:25:28.923,6900.326,6900.326,1,1,0.00000,3.29148,0.00000,0.00000,0.00000,0.00000,0.00000,,0.0110507,,0,
347,02/02/2022 19:26:08.924,6940.328,6940.327,1,1,0.00000,3.28937,0.00000,0.00000,0.00000,0.00000,0.00000,,-0.02067392,,,
349,02/02/2022 19:26:48.926,6980.329,6980.329,1,1,0.00000,3.29461,0.00000,0.00000,0.00000,0.00000,0.00000,,0.02486365,,,
351,02/02/2022 19:27:28.928,7020.332,7020.331,1,1,0.00000,3.29701,0.00000,0.00000,0.00000,0.00000,0.00000,,0.01594088,,0,
353,02/02/2022 19:28:08.929,7060.333,7060.332,1,1,0.00000,3.30128,0.00000,0.00000,0.00000,0.00000,0.00000,,0.01551523,,,
355,02/02/2022 19:28:48.933,7100.336,7100.336,1,1,0.00000,3.30114,0.00000,0.00000,0.00000,0.00000,0.00000,,-0.01591251,,,
357,02/02/2022 19:29:28.934,7140.338,7140.337,1,1,0.00000,3.30540,0.00000,0.00000,0.00000,0.00000,0.00000,,0.01992498,,0,
359,02/02/2022 19:30:08.935,7180.338,7180.338,1,1,0.00000,3.31017,0.00000,0.00000,0.00000,0.00000,0.00000,,-0.02902179,,,
361,02/02/2022 19:30:48.937,7220.340,7220.340,1,1,0.00000,3.31565,0.00000,0.00000,0.00000,0.00000,0.00000,,-0.01593864,,,
363,02/02/2022 19:31:28.940,7260.343,7260.343,1,1,0.00000,3.31685,0.00000,0.00000,0.00000,0.00000,0.00000,,0.02633644,,0,
365,02/02/2022 19:32:08.940,7300.343,7300.343,1,1,0.00000,3.32341,0.00000,0.00000,0.00000,0.00000,0.00000,,-0.01531448,,,
367,02/02/2022 19:32:48.943,7340.346,7340.346,1,1,0.00000,3.32362,0.00000,0.00000,0.00000,0.00000,0.00000,,-0.02256598,,,
369,02/02/2022 19:33:28.945,7380.348,7380.348,1,1,0.00000,3.33007,0.00000,0.00000,0.00000,0.00000,0.00000,,8.410615E-05,,,
371,02/02/2022 19:34:08.948,7420.351,7420.351,1,1,0.00000,3.33230,0.00000,0.00000,0.00000,0.00000,0.00000,,0.01899354,,,
373,02/02/2022 19:34:48.949,7460.353,7460.352,1,1,0.00000,3.33805,0.00000,0.00000,0.00000,0.00000,0.00000,,-0.0316571,,,
375,02/02/2022 19:35:28.952,7500.355,7500.355,1,1,0.00000,3.34400,0.00000,0.00000,0.00000,0.00000,0.00000,,0.001603465,,,
377,02/02/2022 19:36:08.954,7540.357,7540.357,1,1,0.00000,3.34454,0.00000,0.00000,0.00000,0.00000,0.00000,,0.01799957,,,
379,02/02/2022 19:36:48.955,7580.359,7580.358,1,1,0.00000,3.34858,0.00000,0.00000,0.00000,0.00000,0.00000,,0.01217275,,,
381,02/02/2022 19:37:28.956,7620.359,7620.359,1,1,0.00000,3.35547,0.00000,0.00000,0.00000,0.00000,0.00000,,-0.01340367,,,
383,02/02/2022 19:38:08.958,7660.362,7660.361,1,1,0.00000,3.35740,0.00000,0.00000,0.00000,0.00000,0.00000,,-0.02597059,,,
385,02/02/2022 19:38:48.961,7700.364,7700.364,1,1,0.00000,3.36019,0.00000,0.00000,0.00000,0.00000,0.00000,,0.00468487,,,
387,02/02/2022 19:39:28.962,7740.365,7740.365,1,1,0.00000,3.36588,0.00000,0.00000,0.00000,0.00000,0.00000,,-0.02820832,,,
389,02/02/2022 19:40:08.965,7780.368,7780.368,1,1,0.00000,3.37122,0.00000,0.00000,0.00000,0.00000,0.00000,,-0.01938329,,,
391,02/02/2022 19:40:48.967,7820.370,7820.370,1,1,0.00000,3.37366,0.00000,0.00000,0.00000,0.00000,0.00000,,0.0005889011,,,0
393,02/02/2022 19:41:28.970,7860.373,7860.373,1,1,0.00000,3.37862,0.00000,0.00000,0.00000,0.00000,0.00000,,-0.01421384,,,
395,02/02/2022 19:42:08.971,7900.374,7900.374,1,1,0.00000,3.38229,0.00000,0.00000,0.00000,0.00000,0.00000,,-0.01587002,,,
397,02/02/2022 19:42:48.973,7940.376,7940.376,1,1,0.00000,3.39111,0.00000,0.00000,0.00000,0.00000,0.00000,,-0.02026094,,,0
399,02/02/2022 19:43:28.974,7980.377,7980.377,1,1,0.00000,3.39642,0.00000,0.00000,0.00000,0.00000,0.00000,,0.01233505,,,
401,02/02/2022 19:44:08.975,8020.378,8020.378,1,1,0.00000,3.39799,0.00000,0.00000,0.00000,0.00000,0.00000,,0.0001176067,,,
403,02/02/2022 19:44:48.977,8060.380,8060.380,1,1,0.00000,3.40100,0.00000,0.00000,0.00000,0.00000,0.00000,,3.50081E-05,,,0
405,02/02/2022 19:45:28.979,8100.382,8100.382,1,1,0.00000,3.40401,0.00000,0.00000,0.00000,0.00000,0.00000,,3.903838E-05,,,
407,02/02/2022 19:46:08.983,8140.386,8140.386,1,1,0.00000,3.41012,0.00000,0.00000,0.00000,0.00000,0.00000,,0.01990474,,,
409,02/02/2022 19:46:48.984,8180.388,8180.387,1,1,0.00000,3.41264,0.00000,0.00000,0.00000,0.00000,0.00000,,-0.01588333,,,
411,02/02/2022 19:47:28.986,8220.389,8220.389,1,1,0.00000,3.41643,0.00000,0.00000,0.00000,0.00000,0.00000,,6.357565E-05,,,
413,02/02/2022 19:48:08.989,8260.392,8260.392,1,1,0.00000,3.42441,0.00000,0.00000,0.00000,0.00000,0.00000,,0.0001572933,,,
415,02/02/2022 19:48:48.991,8300.394,8300.394,1,1,0.00000,3.42626,0.00000,0.00000,0.00000,0.00000,0.00000,,0.0001636265,,,
417,02/02/2022 19:49:28.991,8340.394,8340.394,1,1,0.00000,3.43299,0.00000,0.00000,0.00000,0.00000,0.00000,,4.445528E-05,,,
419,02/02/2022 19:50:08.994,8380.397,8380.397,1,1,0.00000,3.43701,0.00000,0.00000,0.00000,0.00000,0.00000,,9.855083E-05,,,
421,02/02/2022 19:50:48.996,8420.399,8420.399,1,1,0.00000,3.44160,0.00000,0.00000,0.00000,0.00000,0.00000,,-0.01950745,,,
423,02/02/2022 19:51:28.999,8460.403,8460.402,1,1,0.00000,3.45026,0.00000,0.00000,0.00000,0.00000,0.00000,,0.01893732,,,
425,02/02/2022 19:52:09.003,8500.406,8500.406,1,1,0.00000,3.45343,0.00000,0.00000,0.00000,0.00000,0.00000,,6.452449E-05,,,
427,02/02/2022 19:52:49.005,8540.408,8540.408,1,1,0.00000,3.46057,0.00000,0.00000,0.00000,0.00000,0.00000,,0.01849717,,,
429,02/02/2022 19:53:29.007,8580.410,8580.410,1,1,0.00000,3.46683,0.00000,0.00000,0.00000,0.00000,0.00000,,0.01321548,,,
431,02/02/2022 19:54:09.009,8620.412,8620.412,1,1,0.00000,3.47514,0.00000,0.00000,0.00000,0.00000,0.00000,,-0.02789616,,,
433,02/02/2022 19:54:49.012,8660.415,8660.415,1,1,0.00000,3.47869,0.00000,0.00000,0.00000,0.00000,0.00000,,9.30926E-05,,,
435,02/02/2022 19:55:29.015,8700.418,8700.418,1,1,0.00000,3.48679,0.00000,0.00000,0.00000,0.00000,0.00000,,-0.0281543,,,
437,02/02/2022 19:56:09.017,8740.420,8740.420,1,1,0.00000,3.49312,0.00000,0.00000,0.00000,0.00000,0.00000,,-0.03103121,,,
439,02/02/2022 19:56:49.021,8780.424,8780.424,1,1,0.00000,3.50064,0.00000,0.00000,0.00000,0.00000,0.00000,,0.01346759,,,
441,02/02/2022 19:57:27.915,8819.318,8819.318,1,1,0.00000,3.50907,0.00000,0.00000,0.00000,0.00000,0.00000,,0.009810149,,,
443,02/02/2022 19:58:07.917,8859.320,8859.320,1,1,0.00000,3.51234,0.00000,0.00000,0.00000,0.00000,0.00000,,0.01669851,,,
445,02/02/2022 19:58:47.383,8898.787,8898.786,1,1,0.00000,3.52451,0.00000,0.00000,0.00000,0.00000,0.00000,,0.01801331,,,
447,02/02/2022 19:59:27.385,8938.788,8938.788,1,1,0.00000,3.52922,0.00000,0.00000,0.00000,0.00000,0.00000,,-0.01495631,,,
449,02/02/2022 20:00:07.389,8978.793,8978.792,1,1,0.00000,3.53425,0.00000,0.00000,0.00000,0.00000,0.00000,,0.02102206,,,
451,02/02/2022 20:00:47.391,9018.794,9018.794,1,1,0.00000,3.54231,0.00000,0.00000,0.00000,0.00000,0.00000,,0.01597976,,,
453,02/02/2022 20:01:27.393,9058.796,9058.796,1,1,0.00000,3.54614,0.00000,0.00000,0.00000,0.00000,0.00000,,-0.02534301,,,
455,02/02/2022 20:02:07.155,9098.558,9098.558,1,1,0.00000,3.55505,0.00000,0.00000,0.00000,0.00000,0.00000,,0.0002189201,,,
457,02/02/2022 20:02:47.157,9138.561,9138.560,1,1,0.00000,3.56685,0.00000,0.00000,0.00000,0.00000,0.00000,,-0.03061331,,,
459,02/02/2022 20:03:27.161,9178.564,9178.564,1,1,0.00000,3.57095,0.00000,0.00000,0.00000,0.00000,0.00000,,0.01348012,,,
461,02/02/2022 20:04:07.164,9218.567,9218.567,1,1,0.00000,3.58134,0.00000,0.00000,0.00000,0.00000,0.00000,,0.0004238552,,,
463,02/02/2022 20:04:47.166,9258.569,9258.569,1,1,0.00000,3.58431,0.00000,0.00000,0.00000,0.00000,0.00000,,0.01361966,,,
465,02/02/2022 20:05:27.168,9298.571,9298.571,1,1,0.00000,3.59433,0.00000,0.00000,0.00000,0.00000,0.00000,,0.0001098366,,,
467,02/02/2022 20:06:07.171,9338.574,9338.574,1,1,0.00000,3.60166,0.00000,0.00000,0.00000,0.00000,0.00000,,-0.01854952,,,
469,02/02/2022 20:06:47.174,9378.577,9378.577,1,1,0.00000,3.60574,0.00000,0.00000,0.00000,0.00000,0.00000,,-0.01931981,,,
471,02/02/2022 20:07:27.176,9418.579,9418.579,1,1,0.00000,3.61503,0.00000,0.00000,0.00000,0.00000,0.00000,,-0.02661038,,,
473,02/02/2022 20:08:07.177,9458.581,9458.580,1,1,0.00000,3.62133,0.00000,0.00000,0.00000,0.00000,0.00000,,0.01514459,,,
475,02/02/2022 20:08:47.179,9498.582,9498.582,1,1,0.00000,3.62719,0.00000,0.00000,0.00000,0.00000,0.00000,,-0.02390303,,,
477,02/02/2022 20:09:27.182,9538.585,9538.585,1,1,0.00000,3.63954,0.00000,0.00000,0.00000,0.00000,0.00000,,0.01695184,,,
479,02/02/2022 20:10:07.185,9578.588,9578.588,1,1,0.00000,3.64496,0.00000,0.00000,0.00000,0.00000,0.00000,,0.000133258,,,
481,02/02/2022 20:10:47.186,9618.589,9618.589,1,1,0.00000,3.65492,0.00000,0.00000,0.00000,0.00000,0.00000,,0.02895412,,,
483,02/02/2022 20:11:22.090,9653.493,9653.493,1,1,0.00000,3.66272,0.00000,0.00000,0.00000,0.00000,0.00000,,0.01109724,,,
485,02/02/2022 20:12:02.092,9693.495,9693.495,1,1,0.00000,3.66681,0.00000,0.00000,0.00000,0.00000,0.00000,,0.000106879,,0,
487,02/02/2022 20:12:36.564,9727.967,9727.967,1,1,0.00000,3.67697,0.00000,0.00000,0.00000,0.00000,0.00000,,0.01870765,,,
489,02/02/2022 20:13:16.566,9767.969,9767.969,1,1,0.00000,3.68028,0.00000,0.00000,0.00000,0.00000,0.00000,,-0.01267781,,,
491,02/02/2022 20:13:56.567,9807.970,9807.970,1,1,0.00000,3.68988,0.00000,0.00000,0.00000,0.00000,0.00000,,0.00146919,,0,
493,02/02/2022 20:14:36.569,9847.972,9847.972,1,1,0.00000,3.69924,0.00000,0.00000,0.00000,0.00000,0.00000,,-0.0201006,,,
495,02/02/2022 20:15:16.572,9887.975,9887.975,1,1,0.00000,3.70767,0.00000,0.00000,0.00000,0.00000,0.00000,,-0.01590951,,,
497,02/02/2022 20:15:55.473,9926.876,9926.876,1,1,0.00000,3.71556,0.00000,0.00000,0.00000,0.00000,0.00000,,0.01333396,,0,
499,02/02/2022 20:16:29.713,9961.116,9961.116,1,1,0.00000,3.72525,0.00000,0.00000,0.00000,0.00000,0.00000,,-0.02107109,,,
501,02/02/2022 20:17:09.714,10001.117,10001.117,1,1,0.00000,3.73511,0.00000,0.00000,0.00000,0.00000,0.00000,,0.01779529,,,
503,02/02/2022 20:17:49.715,10041.118,10041.118,1,1,0.00000,3.74505,0.00000,0.00000,0.00000,0.00000,0.00000,,0.01913028,,,
505,02/02/2022 20:18:29.719,10081.122,10081.122,1,1,0.00000,3.75496,0.00000,0.00000,0.00000,0.00000,0.00000,,0.0003402889,,,
507,02/02/2022 20:19:09.720,10121.123,10121.123,1,1,0.00000,3.76412,0.00000,0.00000,0.00000,0.00000,0.00000,,-0.03022544,,,
509,02/02/2022 20:19:48.985,10160.388,10160.388,1,1,0.00000,3.77737,0.00000,0.00000,0.00000,0.00000,0.00000,,0.0003920641,,,
511,02/02/2022 20:20:25.929,10197.332,10197.332,1,1,0.00000,3.78566,0.00000,0.00000,0.00000,0.00000,0.00000,,-0.02464867,,,
513,02/02/2022 20:21:05.931,10237.334,10237.334,1,1,0.00000,3.79356,0.00000,0.00000,0.00000,0.00000,0.00000,,0.0008605154,,,
515,02/02/2022 20:21:45.933,10277.336,10277.336,1,1,0.00000,3.80030,0.00000,0.00000,0.00000,0.00000,0.00000,,8.139513E-05,,,
517,02/02/2022 20:22:22.613,10314.016,10314.016,1,1,0.00000,3.81314,0.00000,0.00000,0.00000,0.00000,0.00000,,-0.02012189,,,
519,02/02/2022 20:23:02.616,10354.019,10354.019,1,1,0.00000,3.82314,0.00000,0.00000,0.00000,0.00000,0.00000,,0.02750879,,,
521,02/02/2022 20:23:40.602,10392.005,10392.005,1,1,0.00000,3.83378,0.00000,0.00000,0.00000,0.00000,0.00000,,-0.01338693,,,
523,02/02/2022 20:24:20.604,10432.007,10432.007,1,1,0.00000,3.83992,0.00000,0.00000,0.00000,0.00000,0.00000,,0.01590129,,,
525,02/02/2022 20:24:57.635,10469.038,10469.038,1,1,0.00000,3.85407,0.00000,0.00000,0.00000,0.00000,0.00000,,0.01939984,,,
527,02/02/2022 20:25:37.637,10509.040,10509.040,1,1,0.00000,3.85932,0.00000,0.00000,0.00000,0.00000,0.00000,,0.0001329963,,,
529,02/02/2022 20:26:15.189,10546.592,10546.592,1,1,0.00000,3.87259,0.00000,0.00000,0.00000,0.00000,0.00000,,0.0001115702,,,
531,02/02/2022 20:26:55.191,10586.594,10586.594,1,1,0.00000,3.88139,0.00000,0.00000,0.00000,0.00000,0.00000,,0.0004352372,,,
533,02/02/2022 20:27:31.976,10623.379,10623.379,1,1,0.00000,3.89278,0.00000,0.00000,0.00000,0.00000,0.00000,,0.0005667881,,,
535,02/02/2022 20:28:11.979,10663.382,10663.382,1,1,0.00000,3.89776,0.00000,0.00000,0.00000,0.00000,0.00000,,0.01660456,,0,
537,02/02/2022 20:28:51.980,10703.383,10703.383,1,1,0.00000,3.90865,0.00000,0.00000,0.00000,0.00000,0.00000,,0.01416314,,,
539,02/02/2022 20:29:31.984,10743.387,10743.387,1,1,0.00000,3.91454,0.00000,0.00000,0.00000,0.00000,0.00000,,-0.03033039,,,
541,02/02/2022 20:30:03.902,10775.305,10775.305,1,1,0.00000,3.92480,0.00000,0.00000,0.00000,0.00000,0.00000,,0.0008670203,,0,
543,02/02/2022 20:30:40.371,10811.774,10811.774,1,1,0.00000,3.93792,0.00000,0.00000,0.00000,0.00000,0.00000,,-0.01080708,,,
545,02/02/2022 20:31:20.372,10851.775,10851.775,1,1,0.00000,3.94311,0.00000,0.00000,0.00000,0.00000,0.00000,,0.0001901512,,,
547,02/02/2022 20:31:56.728,10888.131,10888.131,1,1,0.00000,3.95661,0.00000,0.00000,0.00000,0.00000,0.00000,,0.0001485958,,,
549,02/02/2022 20:32:36.731,10928.134,10928.134,1,1,0.00000,3.96482,0.00000,0.00000,0.00000,0.00000,0.00000,,0.01600971,,,
551,02/02/2022 20:33:16.733,10968.136,10968.136,1,1,0.00000,3.97234,0.00000,0.00000,0.00000,0.00000,0.00000,,-0.01855037,,,
553,02/02/2022 20:33:56.735,11008.138,11008.138,1,1,0.00000,3.98458,0.00000,0.00000,0.00000,0.00000,0.00000,,-0.01459392,,,
555,02/02/2022 20:34:36.737,11048.140,11048.140,1,1,0.00000,3.99394,0.00000,0.00000,0.00000,0.00000,0.00000,,0.01500152,,,
557,02/02/2022 20:35:16.008,11087.411,11087.411,1,1,0.00000,4.00745,0.00000,0.00000,0.00000,0.00000,0.00000,,-0.006815906,,,
559,02/02/2022 20:35:56.011,11127.414,11127.414,1,1,0.00000,4.01563,0.00000,0.00000,0.00000,0.00000,0.00000,,0.01313763,,,
561,02/02/2022 20:36:28.331,11159.734,11159.734,1,1,0.00000,4.03125,0.00000,0.00000,0.00000,0.00000,0.00000,,-0.0164154,,,
563,02/02/2022 20:37:08.333,11199.736,11199.736,1,1,0.00000,4.04026,0.00000,0.00000,0.00000,0.00000,0.00000,,0.01380046,,,
565,02/02/2022 20:37:48.336,11239.739,11239.739,1,1,0.00000,4.05261,0.00000,0.00000,0.00000,0.00000,0.00000,,-0.02184936,,,
567,02/02/2022 20:38:28.339,11279.742,11279.742,1,1,0.00000,4.06353,0.00000,0.00000,0.00000,0.00000,0.00000,,0.0002570464,,,
569,02/02/2022 20:39:08.341,11319.744,11319.744,1,1,0.00000,4.07644,0.00000,0.00000,0.00000,0.00000,0.00000,,0.0007407676,,,
571,02/02/2022 20:39:47.284,11358.688,11358.687,1,1,0.00000,4.08800,0.00000,0.00000,0.00000,0.00000,0.00000,,-0.029146,,,
573,02/02/2022 20:40:27.081,11398.484,11398.484,1,1,0.00000,4.10145,0.00000,0.00000,0.00000,0.00000,0.00000,,0.0001623861,,,
575,02/02/2022 20:41:07.083,11438.486,11438.486,1,1,0.00000,4.11216,0.00000,0.00000,0.00000,0.00000,0.00000,,0.0003007973,,,
577,02/02/2022 20:41:47.083,11478.486,11478.486,1,1,0.00000,4.12715,0.00000,0.00000,0.00000,0.00000,0.00000,,0.02114429,,,
579,02/02/2022 20:42:27.084,11518.488,11518.487,1,1,0.00000,4.13633,0.00000,0.00000,0.00000,0.00000,0.00000,,0.02400607,,,
581,02/02/2022 20:43:05.000,11556.403,11556.403,1,1,0.00000,4.15214,0.00000,0.00000,0.00000,0.00000,0.00000,,-0.01387531,,,
583,02/02/2022 20:43:45.000,11596.403,11596.403,1,1,0.00000,4.16013,0.00000,0.00000,0.00000,0.00000,0.00000,,8.894752E-05,,,
585,02/02/2022 20:44:25.002,11636.405,11636.405,1,1,0.00000,4.17349,0.00000,0.00000,0.00000,0.00000,0.00000,,0.01311157,,,
587,02/02/2022 20:45:05.004,11676.407,11676.407,1,1,0.00000,4.18456,0.00000,0.00000,0.00000,0.00000,0.00000,,0.0001574932,,,
589,02/02/2022 20:45:39.801,11711.204,11711.204,1,1,0.00000,4.19777,0.00000,0.00000,0.00000,0.00000,0.00000,,-0.01582314,,,
591,02/02/2022 20:46:19.802,11751.206,11751.205,1,1,0.00000,4.20457,0.00000,0.00000,0.00000,0.00000,0.00000,,0.0002259511,,0,
593,02/02/2022 20:46:57.503,11788.906,11788.906,1,1,0.00000,4.21818,0.00000,0.00000,0.00000,0.00000,0.00000,,0.01854283,,,
595,02/02/2022 20:47:37.507,11828.910,11828.910,1,1,0.00000,4.23167,0.00000,0.00000,0.00000,0.00000,0.00000,,0.0004213595,,,
597,02/02/2022 20:48:08.592,11859.995,11859.995,1,1,0.00000,4.24333,0.00000,0.00000,0.00000,0.00000,0.00000,,0.0001381933,,0,
599,02/02/2022 20:48:48.595,11899.998,11899.998,1,1,0.00000,4.24942,0.00000,0.00000,0.00000,0.00000,0.00000,,0.01809536,,,
601,02/02/2022 20:49:23.478,11934.881,11934.881,1,1,0.00000,4.26203,0.00000,0.00000,0.00000,0.00000,0.00000,,-0.01200763,,,
603,02/02/2022 20:50:03.480,11974.884,11974.883,1,1,0.00000,4.27324,0.00000,0.00000,0.00000,0.00000,0.00000,,-0.01363754,,,
605,02/02/2022 20:50:41.529,12012.932,12012.932,1,1,0.00000,4.28472,0.00000,0.00000,0.00000,0.00000,0.00000,,-0.02635274,,,
607,02/02/2022 20:51:20.369,12051.772,12051.772,1,1,0.00000,4.29565,0.00000,0.00000,0.00000,0.00000,0.00000,,0.0001193333,,,
609,02/02/2022 20:51:59.840,12091.243,12091.243,1,1,0.00000,4.30656,0.00000,0.00000,0.00000,0.00000,0.00000,,-0.02871667,,,
611,02/02/2022 20:52:37.434,12128.837,12128.837,1,1,0.00000,4.31875,0.00000,0.00000,0.00000,0.00000,0.00000,,-0.03091476,,,
613,02/02/2022 20:53:17.297,12168.700,12168.700,1,1,0.00000,4.33468,0.00000,0.00000,0.00000,0.00000,0.00000,,-0.01109897,,,
615,02/02/2022 20:53:52.386,12203.789,12203.789,1,1,0.00000,4.34485,0.00000,0.00000,0.00000,0.00000,0.00000,,-0.02759525,,,
617,02/02/2022 20:54:32.387,12243.790,12243.790,1,1,0.00000,4.35286,0.00000,0.00000,0.00000,0.00000,0.00000,,0.02089523,,,
619,02/02/2022 20:55:11.760,12283.163,12283.163,1,1,0.00000,4.36565,0.00000,0.00000,0.00000,0.00000,0.00000,,-0.01231228,,,
621,02/02/2022 20:55:51.761,12323.164,12323.164,1,1,0.00000,4.37835,0.00000,0.00000,0.00000,0.00000,0.00000,,-0.01923347,,,
623,02/02/2022 20:56:29.942,12361.345,12361.345,1,1,0.00000,4.39397,0.00000,0.00000,0.00000,0.00000,0.00000,,0.0002813657,,,
625,02/02/2022 20:57:09.943,12401.346,12401.346,1,1,0.00000,4.40382,0.00000,0.00000,0.00000,0.00000,0.00000,,-0.01665262,,,
627,02/02/2022 20:57:43.347,12434.750,12434.750,1,1,0.00000,4.41813,0.00000,0.00000,0.00000,0.00000,0.00000,,0.01227136,,,
629,02/02/2022 20:58:23.349,12474.752,12474.752,1,1,0.00000,4.42515,0.00000,0.00000,0.00000,0.00000,0.00000,,-0.01361143,,0,
631,02/02/2022 20:58:58.507,12509.910,12509.910,1,1,0.00000,4.43811,0.00000,0.00000,0.00000,0.00000,0.00000,,0.0003259594,,,
633,02/02/2022 20:59:33.738,12545.141,12545.141,1,1,0.00000,4.45080,0.00000,0.00000,0.00000,0.00000,0.00000,,0.0003630771,,,
635,02/02/2022 21:00:11.807,12583.210,12583.210,1,1,0.00000,4.46661,0.00000,0.00000,0.00000,0.00000,0.00000,,-0.00937576,,,
637,02/02/2022 21:00:51.809,12623.212,12623.212,1,1,0.00000,4.47642,0.00000,0.00000,0.00000,0.00000,0.00000,,0.0002881508,,,
639,02/02/2022 21:01:23.088,12654.492,12654.491,1,1,0.00000,4.49308,0.00000,0.00000,0.00000,0.00000,0.00000,,0.00361664,,,
641,02/02/2022 21:01:58.420,12689.824,12689.823,1,1,0.00000,4.50596,0.00000,0.00000,0.00000,0.00000,0.00000,,-0.0231782,,,
643,02/02/2022 21:02:38.423,12729.826,12729.826,1,1,0.00000,4.51668,0.00000,0.00000,0.00000,0.00000,0.00000,,0.0212038,,,
645,02/02/2022 21:03:12.146,12763.549,12763.549,1,1,0.00000,4.53032,0.00000,0.00000,0.00000,0.00000,0.00000,,0.02619999,,,
647,02/02/2022 21:03:49.206,12800.609,12800.609,1,1,0.00000,4.54388,0.00000,0.00000,0.00000,0.00000,0.00000,,0.01842076,,,
649,02/02/2022 21:04:28.254,12839.657,12839.657,1,1,0.00000,4.55731,0.00000,0.00000,0.00000,0.00000,0.00000,,0.01246573,,0,
651,02/02/2022 21:05:06.110,12877.513,12877.513,1,1,0.00000,4.56872,0.00000,0.00000,0.00000,0.00000,0.00000,,-0.01792091,,,
653,02/02/2022 21:05:42.505,12913.908,12913.908,1,1,0.00000,4.58253,0.00000,0.00000,0.00000,0.00000,0.00000,,0.0001636105,,,
655,02/02/2022 21:06:22.130,12953.533,12953.533,1,1,0.00000,4.59697,0.00000,0.00000,0.00000,0.00000,0.00000,,-0.01233655,,0,
657,02/02/2022 21:07:02.133,12993.536,12993.536,1,1,0.00000,4.60806,0.00000,0.00000,0.00000,0.00000,0.00000,,0.01269838,,,
659,02/02/2022 21:07:37.367,13028.770,13028.770,1,1,0.00000,4.62259,0.00000,0.00000,0.00000,0.00000,0.00000,,0.01367144,,,
661,02/02/2022 21:08:14.295,13065.698,13065.698,1,1,0.00000,4.63474,0.00000,0.00000,0.00000,0.00000,0.00000,,-0.01244343,,,
663,02/02/2022 21:08:54.300,13105.703,13105.703,1,1,0.00000,4.64464,0.00000,0.00000,0.00000,0.00000,0.00000,,0.0006131499,,,
665,02/02/2022 21:09:34.301,13145.705,13145.704,1,1,0.00000,4.65799,0.00000,0.00000,0.00000,0.00000,0.00000,,0.01289799,,,
667,02/02/2022 21:10:14.255,13185.658,13185.658,1,1,0.00000,4.67230,0.00000,0.00000,0.00000,0.00000,0.00000,,-0.02754222,,,
669,02/02/2022 21:10:53.905,13225.308,13225.308,1,1,0.00000,4.68932,0.00000,0.00000,0.00000,0.00000,0.00000,,-0.02291753,,,
671,02/02/2022 21:11:32.129,13263.532,13263.532,1,1,0.00000,4.70187,0.00000,0.00000,0.00000,0.00000,0.00000,,0.01167612,,,
673,02/02/2022 21:12:12.131,13303.534,13303.534,1,1,0.00000,4.71064,0.00000,0.00000,0.00000,0.00000,0.00000,,0.0006396782,,,
675,02/02/2022 21:12:44.250,13335.653,13335.653,1,1,0.00000,4.72112,0.00000,0.00000,0.00000,0.00000,0.00000,,-0.01521441,,,
677,02/02/2022 21:13:16.807,13368.210,13368.210,1,1,0.00000,4.73268,0.00000,0.00000,0.00000,0.00000,0.00000,,-0.01589904,,,
679,02/02/2022 21:13:52.257,13403.660,13403.660,1,1,0.00000,4.74477,0.00000,0.00000,0.00000,0.00000,0.00000,,-0.01768342,,,
681,02/02/2022 21:14:25.083,13436.486,13436.486,1,1,0.00000,4.75407,0.00000,0.00000,0.00000,0.00000,0.00000,,0.000550327,,0,
683,02/02/2022 21:14:53.409,13464.813,13464.812,1,1,0.00000,4.76745,0.00000,0.00000,0.00000,0.00000,0.00000,,0.0001898655,,,
685,02/02/2022 21:15:33.412,13504.815,13504.815,1,1,0.00000,4.77923,0.00000,0.00000,0.00000,0.00000,0.00000,,0.02745901,,,
687,02/02/2022 21:16:08.769,13540.172,13540.172,1,1,0.00000,4.79129,0.00000,0.00000,0.00000,0.00000,0.00000,,-0.02071416,,,
689,02/02/2022 21:16:45.661,13577.064,13577.064,1,1,0.00000,4.80719,0.00000,0.00000,0.00000,0.00000,0.00000,,0.0004388499,,,
691,02/02/2022 21:17:25.229,13616.632,13616.632,1,1,0.00000,4.82150,0.00000,0.00000,0.00000,0.00000,0.00000,,0.01278885,,,
693,02/02/2022 21:18:05.231,13656.634,13656.634,1,1,0.00000,4.83125,0.00000,0.00000,0.00000,0.00000,0.00000,,-0.01825161,,,
695,02/02/2022 21:18:41.337,13692.740,13692.740,1,1,0.00000,4.84693,0.00000,0.00000,0.00000,0.00000,0.00000,,-0.02159241,,,
697,02/02/2022 21:19:21.338,13732.741,13732.741,1,1,0.00000,4.85793,0.00000,0.00000,0.00000,0.00000,0.00000,,-0.02482218,,,
699,02/02/2022 21:20:00.293,13771.697,13771.696,1,1,0.00000,4.87194,0.00000,0.00000,0.00000,0.00000,0.00000,,0.001482076,,,
701,02/02/2022 21:20:37.927,13809.330,13809.330,1,1,0.00000,4.88837,0.00000,0.00000,0.00000,0.00000,0.00000,,-0.0315633,,0,
703,02/02/2022 21:21:17.930,13849.333,13849.333,1,1,0.00000,4.89935,0.00000,0.00000,0.00000,0.00000,0.00000,,0.0005111141,,,
705,02/02/2022 21:21:53.130,13884.533,13884.533,1,1,0.00000,4.91395,0.00000,0.00000,0.00000,0.00000,0.00000,,-0.01739137,,,
707,02/02/2022 21:22:26.693,13918.096,13918.096,1,1,0.00000,4.92964,0.00000,0.00000,0.00000,0.00000,0.00000,,0.01170661,,0,
709,02/02/2022 21:23:06.693,13958.097,13958.096,1,1,0.00000,4.94304,0.00000,0.00000,0.00000,0.00000,0.00000,,-0.0145308,,,
711,02/02/2022 21:23:43.116,13994.519,13994.519,1,1,0.00000,4.95591,0.00000,0.00000,0.00000,0.00000,0.00000,,0.02755287,,,
713,02/02/2022 21:24:21.135,14032.538,14032.538,1,1,0.00000,4.96910,0.00000,0.00000,0.00000,0.00000,0.00000,,0.01088959,,,
715,02/02/2022 21:24:55.288,14066.691,14066.691,1,1,0.00000,4.98267,0.00000,0.00000,0.00000,0.00000,0.00000,,-0.02151299,,,
717,02/02/2022 21:25:34.119,14105.522,14105.522,1,1,0.00000,4.99551,0.00000,0.00000,0.00000,0.00000,0.00000,,0.01690079,,,
718,02/02/2022 21:25:53.865,14125.269,14125.268,1,1,0.00000,5.00036,0.00000,0.00000,0.00000,0.00000,0.00000,,-0.01589755,0,0,0