File: Data/Data_220201_NMC/Martin_0201_Channel_33_IV&Aux__Wb_1.CSV
Data_Point,Date_Time,Test_Time(s),Step_Time(s),Cycle_Index,Step_Index,Current(A),Voltage(V),Power(W),Charge_Capacity(Ah),Discharge_Capacity(Ah),Charge_Energy(Wh),Discharge_Energy(Wh),ACR(Ohm),dV/dt(V/s),Internal_Resistance(Ohm),dQ/dV(Ah/V),dV/dQ(V/Ah)
1,02/02/2022 17:30:48.569,20.001,20.001,1,1,0.00000,3.34519,0.00000,0.00000,0.00000,0.00000,0.00000,,4.123843E-05,,,
6,02/02/2022 17:32:28.572,120.004,120.004,1,1,0.00000,3.34960,0.00000,0.00000,0.00000,0.00000,0.00000,,-0.0002947141,,,
11,02/02/2022 17:34:08.576,220.007,220.007,1,1,0.00000,3.35383,0.00000,0.00000,0.00000,0.00000,0.00000,,6.614452E-05,,,
16,02/02/2022 17:35:48.579,320.011,320.011,1,1,0.00000,3.35569,0.00000,0.00000,0.00000,0.00000,0.00000,,-1.394908E-05,,,
21,02/02/2022 17:37:28.581,420.013,420.013,1,1,0.00000,3.36058,0.00000,0.00000,0.00000,0.00000,0.00000,,7.768162E-05,,,
26,02/02/2022 17:39:08.585,520.017,520.017,1,1,0.00000,3.36376,0.00000,0.00000,0.00000,0.00000,0.00000,,0.0001276559,,,
31,02/02/2022 17:40:48.588,620.020,620.020,1,1,0.00000,3.36734,0.00000,0.00000,0.00000,0.00000,0.00000,,-4.057634E-05,,0,
36,02/02/2022 17:42:28.591,720.023,720.023,1,1,0.00000,3.36816,0.00000,0.00000,0.00000,0.00000,0.00000,,-0.0002063023,,,
41,02/02/2022 17:44:08.596,820.028,820.028,1,1,0.00000,3.36994,0.00000,0.00000,0.00000,0.00000,0.00000,,-4.524222E-05,,,
46,02/02/2022 17:45:48.600,920.032,920.032,1,1,0.00000,3.37221,0.00000,0.00000,0.00000,0.00000,0.00000,,7.527199E-05,,,
51,02/02/2022 17:47:28.605,1020.037,1020.037,1,1,0.00000,3.37335,0.00000,0.00000,0.00000,0.00000,0.00000,,1.631975E-05,,,
56,02/02/2022 17:49:08.609,1120.041,1120.041,1,1,0.00000,3.37509,0.00000,0.00000,0.00000,0.00000,0.00000,,-3.441341E-05,,,
61,02/02/2022 17:50:48.615,1220.047,1220.047,1,1,0.00000,3.37557,0.00000,0.00000,0.00000,0.00000,0.00000,,-5.061639E-05,,0,
66,02/02/2022 17:52:28.618,1320.050,1320.050,1,1,0.00000,3.37878,0.00000,0.00000,0.00000,0.00000,0.00000,,3.441512E-05,,,
71,02/02/2022 17:54:08.623,1420.055,1420.055,1,1,0.00000,3.37945,0.00000,0.00000,0.00000,0.00000,0.00000,,5.571313E-06,,,
76,02/02/2022 17:55:48.629,1520.061,1520.061,1,1,0.00000,3.38039,0.00000,0.00000,0.00000,0.00000,0.00000,,2.188976E-05,,,
81,02/02/2022 17:57:28.634,1620.066,1620.066,1,1,0.00000,3.38108,0.00000,0.00000,0.00000,0.00000,0.00000,,-2.244442E-05,,,
86,02/02/2022 17:59:08.639,1720.071,1720.071,1,1,0.00000,3.38207,0.00000,0.00000,0.00000,0.00000,0.00000,,-7.112255E-07,,,
91,02/02/2022 18:00:48.645,1820.077,1820.077,1,1,0.00000,3.38359,0.00000,0.00000,0.00000,0.00000,0.00000,,1.300048E-05,,0,
96,02/02/2022 18:02:28.652,1920.083,1920.083,1,1,0.00000,3.38457,0.00000,0.00000,0.00000,0.00000,0.00000,,-5.528169E-05,,,
101,02/02/2022 18:04:08.656,2020.088,2020.088,1,1,0.00000,3.38472,0.00000,0.00000,0.00000,0.00000,0.00000,,8.49463E-06,,,
106,02/02/2022 18:05:48.661,2120.092,2120.092,1,1,0.00000,3.38599,0.00000,0.00000,0.00000,0.00000,0.00000,,4.737512E-05,,,
111,02/02/2022 18:06:25.778,2157.210,2157.210,1,1,0.00000,3.38427,0.00000,0.00000,0.00000,0.00000,0.00000,,0.008437087,,,
116,02/02/2022 18:07:34.265,2225.697,2225.697,1,1,0.00000,3.36509,0.00000,0.00000,0.00000,0.00000,0.00000,,,,,
121,02/02/2022 18:07:56.192,2247.624,2247.624,1,1,0.00000,3.38571,0.00000,0.00000,0.00000,0.00000,0.00000,,4.962773E-05,,,
126,02/02/2022 18:09:36.194,2347.626,2347.626,1,1,0.00000,3.38721,0.00000,0.00000,0.00000,0.00000,0.00000,,9.667181E-05,,,
131,02/02/2022 18:11:16.200,2447.632,2447.632,1,1,0.00000,3.38766,0.00000,0.00000,0.00000,0.00000,0.00000,,5.097116E-06,,,
136,02/02/2022 18:12:56.207,2547.639,2547.639,1,1,0.00000,3.38786,0.00000,0.00000,0.00000,0.00000,0.00000,,6.595078E-05,,0,
141,02/02/2022 18:14:36.212,2647.643,2647.643,1,1,0.00000,3.38746,0.00000,0.00000,0.00000,0.00000,0.00000,,4.520533E-05,,,
146,02/02/2022 18:16:16.218,2747.650,2747.650,1,1,0.00000,3.38841,0.00000,0.00000,0.00000,0.00000,0.00000,,-1.995515E-05,,,
151,02/02/2022 18:17:56.223,2847.655,2847.655,1,1,0.00000,3.38886,0.00000,0.00000,0.00000,0.00000,0.00000,,6.128088E-05,,,
156,02/02/2022 18:19:36.228,2947.660,2947.660,1,1,0.00000,3.38858,0.00000,0.00000,0.00000,0.00000,0.00000,,4.386181E-06,,,
161,02/02/2022 18:21:16.235,3047.667,3047.667,1,1,0.00000,3.38947,0.00000,0.00000,0.00000,0.00000,0.00000,,7.274256E-05,,,
166,02/02/2022 18:22:56.239,3147.671,3147.671,1,1,0.00000,3.38970,0.00000,0.00000,0.00000,0.00000,0.00000,,-2.963218E-06,,0,
171,02/02/2022 18:24:36.242,3247.674,3247.674,1,1,0.00000,3.38971,0.00000,0.00000,0.00000,0.00000,0.00000,,4.60716E-05,,,
176,02/02/2022 18:26:16.247,3347.679,3347.679,1,1,0.00000,3.39040,0.00000,0.00000,0.00000,0.00000,0.00000,,1.070789E-05,,,
181,02/02/2022 18:27:51.656,3443.088,3443.088,1,1,0.00000,3.37880,0.00000,0.00000,0.00000,0.00000,0.00000,,-0.001088724,,,
186,02/02/2022 18:27:51.812,3443.244,3443.244,1,1,0.00000,3.36410,0.00000,0.00000,0.00000,0.00000,0.00000,,,,,
191,02/02/2022 18:28:52.501,3503.933,3503.933,1,1,0.00000,3.39103,0.00000,0.00000,0.00000,0.00000,0.00000,,6.389176E-05,,,
196,02/02/2022 18:30:32.505,3603.937,3603.937,1,1,0.00000,3.39166,0.00000,0.00000,0.00000,0.00000,0.00000,,-4.855727E-05,,,
201,02/02/2022 18:32:12.510,3703.941,3703.941,1,1,0.00000,3.39259,0.00000,0.00000,0.00000,0.00000,0.00000,,-3.844378E-05,,,
206,02/02/2022 18:33:52.514,3803.946,3803.946,1,1,0.00000,3.39299,0.00000,0.00000,0.00000,0.00000,0.00000,,5.180393E-05,,,
211,02/02/2022 18:35:32.517,3903.948,3903.948,1,1,0.00000,3.39309,0.00000,0.00000,0.00000,0.00000,0.00000,,-6.326322E-05,,,
216,02/02/2022 18:37:12.520,4003.952,4003.952,1,1,0.00000,3.39327,0.00000,0.00000,0.00000,0.00000,0.00000,,6.002351E-05,,0,
221,02/02/2022 18:38:52.527,4103.959,4103.959,1,1,0.00000,3.39391,0.00000,0.00000,0.00000,0.00000,0.00000,,-1.920166E-05,,,
226,02/02/2022 18:40:32.531,4203.963,4203.963,1,1,0.00000,3.39396,0.00000,0.00000,0.00000,0.00000,0.00000,,3.243978E-05,,,
231,02/02/2022 18:42:12.534,4303.966,4303.966,1,1,0.00000,3.39386,0.00000,0.00000,0.00000,0.00000,0.00000,,5.650666E-05,,,
236,02/02/2022 18:43:52.540,4403.972,4403.972,1,1,0.00000,3.39399,0.00000,0.00000,0.00000,0.00000,0.00000,,-3.884081E-05,,,
241,02/02/2022 18:45:32.544,4503.975,4503.975,1,1,0.00000,3.39496,0.00000,0.00000,0.00000,0.00000,0.00000,,-6.800106E-05,,,
246,02/02/2022 18:47:12.549,4603.981,4603.981,1,1,0.00000,3.39452,0.00000,0.00000,0.00000,0.00000,0.00000,,-1.252557E-05,,0,
251,02/02/2022 18:48:52.554,4703.986,4703.986,1,1,0.00000,3.39470,0.00000,0.00000,0.00000,0.00000,0.00000,,-4.259132E-05,,,
256,02/02/2022 18:50:32.559,4803.991,4803.991,1,1,0.00000,3.39512,0.00000,0.00000,0.00000,0.00000,0.00000,,-3.465249E-05,,,
261,02/02/2022 18:52:12.564,4903.996,4903.996,1,1,0.00000,3.39515,0.00000,0.00000,0.00000,0.00000,0.00000,,-3.698373E-05,,,
266,02/02/2022 18:53:52.569,5004.000,5004.000,1,1,0.00000,3.39583,0.00000,0.00000,0.00000,0.00000,0.00000,,6.98965E-05,,,
271,02/02/2022 18:55:32.573,5104.004,5104.004,1,1,0.00000,3.39628,0.00000,0.00000,0.00000,0.00000,0.00000,,-3.429687E-05,,,
276,02/02/2022 18:57:12.577,5204.008,5204.008,1,1,0.00000,3.39571,0.00000,0.00000,0.00000,0.00000,0.00000,,4.840605E-05,,0,
281,02/02/2022 18:58:52.579,5304.011,5304.011,1,1,0.00000,3.39611,0.00000,0.00000,0.00000,0.00000,0.00000,,-6.653909E-05,,,
286,02/02/2022 19:00:32.584,5404.015,5404.015,1,1,0.00000,3.39602,0.00000,0.00000,0.00000,0.00000,0.00000,,-5.666096E-05,,,
291,02/02/2022 19:02:12.589,5504.021,5504.021,1,1,0.00000,3.39690,0.00000,0.00000,0.00000,0.00000,0.00000,,5.942733E-05,,,
296,02/02/2022 19:03:52.595,5604.027,5604.027,1,1,0.00000,3.39602,0.00000,0.00000,0.00000,0.00000,0.00000,,-1.600151E-05,,,
301,02/02/2022 19:05:32.600,5704.031,5704.031,1,1,0.00000,3.39712,0.00000,0.00000,0.00000,0.00000,0.00000,,7.207085E-05,,0,
306,02/02/2022 19:07:12.605,5804.037,5804.037,1,1,0.00000,3.39665,0.00000,0.00000,0.00000,0.00000,0.00000,,6.096833E-05,,,
311,02/02/2022 19:08:52.609,5904.041,5904.041,1,1,0.00000,3.39685,0.00000,0.00000,0.00000,0.00000,0.00000,,-7.428785E-05,,,
316,02/02/2022 19:10:32.613,6004.045,6004.045,1,1,0.00000,3.39756,0.00000,0.00000,0.00000,0.00000,0.00000,,5.266976E-05,,,
321,02/02/2022 19:12:12.620,6104.052,6104.052,1,1,0.00000,3.39697,0.00000,0.00000,0.00000,0.00000,0.00000,,5.318694E-05,,,
326,02/02/2022 19:13:52.625,6204.057,6204.057,1,1,0.00000,3.39718,0.00000,0.00000,0.00000,0.00000,0.00000,,-5.456725E-05,,,
331,02/02/2022 19:15:32.631,6304.063,6304.063,1,1,0.00000,3.39791,0.00000,0.00000,0.00000,0.00000,0.00000,,-6.045416E-06,,0,
336,02/02/2022 19:17:12.638,6404.070,6404.070,1,1,0.00000,3.39739,0.00000,0.00000,0.00000,0.00000,0.00000,,4.539989E-05,,,
341,02/02/2022 19:18:52.644,6504.076,6504.076,1,1,0.00000,3.39826,0.00000,0.00000,0.00000,0.00000,0.00000,,5.883025E-05,,,
346,02/02/2022 19:20:32.649,6604.081,6604.081,1,1,0.00000,3.39763,0.00000,0.00000,0.00000,0.00000,0.00000,,1.623951E-05,,,
351,02/02/2022 19:22:12.653,6704.085,6704.085,1,1,0.00000,3.39810,0.00000,0.00000,0.00000,0.00000,0.00000,,-8.080914E-05,,,
356,02/02/2022 19:23:52.660,6804.092,6804.092,1,1,0.00000,3.39829,0.00000,0.00000,0.00000,0.00000,0.00000,,-6.045416E-05,,,
361,02/02/2022 19:25:32.664,6904.096,6904.096,1,1,0.00000,3.39821,0.00000,0.00000,0.00000,0.00000,0.00000,,3.876211E-05,,0,
366,02/02/2022 19:27:12.670,7004.102,7004.102,1,1,0.00000,3.39854,0.00000,0.00000,0.00000,0.00000,0.00000,,2.568314E-06,,,
371,02/02/2022 19:28:52.677,7104.108,7104.108,1,1,0.00000,3.39867,0.00000,0.00000,0.00000,0.00000,0.00000,,-4.610844E-05,,,
376,02/02/2022 19:30:32.680,7204.112,7204.112,1,1,0.00000,3.39834,0.00000,0.00000,0.00000,0.00000,0.00000,,5.728984E-05,,,
381,02/02/2022 19:32:12.683,7304.115,7304.115,1,1,0.00000,3.39837,0.00000,0.00000,0.00000,0.00000,0.00000,,3.666793E-05,,,
386,02/02/2022 19:33:52.687,7404.119,7404.119,1,1,0.00000,3.39863,0.00000,0.00000,0.00000,0.00000,0.00000,,-1.936098E-05,,,
391,02/02/2022 19:35:32.691,7504.123,7504.123,1,1,0.00000,3.39826,0.00000,0.00000,0.00000,0.00000,0.00000,,-5.780682E-05,,0,
396,02/02/2022 19:37:12.696,7604.128,7604.128,1,1,0.00000,3.39875,0.00000,0.00000,0.00000,0.00000,0.00000,,6.507659E-05,,,
401,02/02/2022 19:38:52.702,7704.134,7704.134,1,1,0.00000,3.39978,0.00000,0.00000,0.00000,0.00000,0.00000,,1.521131E-05,,,
406,02/02/2022 19:40:32.712,7804.144,7804.144,1,1,0.00000,3.39890,0.00000,0.00000,0.00000,0.00000,0.00000,,6.048967E-05,,,
411,02/02/2022 19:42:12.717,7904.148,7904.148,1,1,0.00000,3.39997,0.00000,0.00000,0.00000,0.00000,0.00000,,7.428417E-05,,,
416,02/02/2022 19:43:52.721,8004.152,8004.152,1,1,0.00000,3.39979,0.00000,0.00000,0.00000,0.00000,0.00000,,4.346378E-06,,0,
421,02/02/2022 19:45:32.726,8104.158,8104.158,1,1,0.00000,3.40019,0.00000,0.00000,0.00000,0.00000,0.00000,,-4.314518E-05,,,
426,02/02/2022 19:47:12.730,8204.162,8204.162,1,1,0.00000,3.39991,0.00000,0.00000,0.00000,0.00000,0.00000,,6.211369E-05,,,
431,02/02/2022 19:48:52.734,8304.166,8304.166,1,1,0.00000,3.40038,0.00000,0.00000,0.00000,0.00000,0.00000,,-6.021709E-05,,,
436,02/02/2022 19:50:32.739,8404.171,8404.171,1,1,0.00000,3.39963,0.00000,0.00000,0.00000,0.00000,0.00000,,1.426402E-05,,,
441,02/02/2022 19:52:12.745,8504.177,8504.177,1,1,0.00000,3.40017,0.00000,0.00000,0.00000,0.00000,0.00000,,-3.580072E-05,,,
446,02/02/2022 19:53:52.753,8604.184,8604.184,1,1,0.00000,3.39958,0.00000,0.00000,0.00000,0.00000,0.00000,,7.013531E-05,,0,
451,02/02/2022 19:55:32.760,8704.192,8704.192,1,1,0.00000,3.39443,0.00000,0.00000,0.00000,0.00000,0.00000,,-3.880098E-05,,,
456,02/02/2022 19:57:12.764,8804.195,8804.195,1,1,0.00000,3.39673,0.00000,0.00000,0.00000,0.00000,0.00000,,6.365468E-05,,,
461,02/02/2022 19:58:52.769,8904.201,8904.201,1,1,0.00000,3.39960,0.00000,0.00000,0.00000,0.00000,0.00000,,5.828194E-05,,,
466,02/02/2022 20:00:32.774,9004.206,9004.206,1,1,0.00000,3.40038,0.00000,0.00000,0.00000,0.00000,0.00000,,5.180135E-05,,,
471,02/02/2022 20:02:12.779,9104.211,9104.211,1,1,0.00000,3.40003,0.00000,0.00000,0.00000,0.00000,0.00000,,1.137942E-05,,,
476,02/02/2022 20:03:52.785,9204.216,9204.216,1,1,0.00000,3.39951,0.00000,0.00000,0.00000,0.00000,0.00000,,-5.931174E-05,,0,
481,02/02/2022 20:05:32.790,9304.222,9304.222,1,1,0.00000,3.39931,0.00000,0.00000,0.00000,0.00000,0.00000,,-8.45519E-06,,,
486,02/02/2022 20:07:12.794,9404.225,9404.225,1,1,0.00000,3.39941,0.00000,0.00000,0.00000,0.00000,0.00000,,5.875464E-05,,,
491,02/02/2022 20:08:52.798,9504.230,9504.230,1,1,0.00000,3.39677,0.00000,0.00000,0.00000,0.00000,0.00000,,1.888683E-05,,,
496,02/02/2022 20:10:32.804,9604.236,9604.236,1,1,0.00000,3.39792,0.00000,0.00000,0.00000,0.00000,0.00000,,0.0001532544,,,
501,02/02/2022 20:12:12.808,9704.239,9704.239,1,1,0.00000,3.39880,0.00000,0.00000,0.00000,0.00000,0.00000,,5.306225E-05,,,
506,02/02/2022 20:13:52.813,9804.245,9804.245,1,1,0.00000,3.39754,0.00000,0.00000,0.00000,0.00000,0.00000,,0.000155898,,0,
511,02/02/2022 20:15:32.819,9904.251,9904.251,1,1,0.00000,3.39697,0.00000,0.00000,0.00000,0.00000,0.00000,,9.043653E-05,,,
516,02/02/2022 20:17:12.825,10004.256,10004.256,1,1,0.00000,3.39660,0.00000,0.00000,0.00000,0.00000,0.00000,,2.339006E-05,,,
521,02/02/2022 20:18:52.830,10104.262,10104.262,1,1,0.00000,3.39657,0.00000,0.00000,0.00000,0.00000,0.00000,,5.389196E-05,,,
526,02/02/2022 20:20:32.836,10204.268,10204.268,1,1,0.00000,3.40062,0.00000,0.00000,0.00000,0.00000,0.00000,,0.0001375223,,,
531,02/02/2022 20:22:12.840,10304.272,10304.272,1,1,0.00000,3.39980,0.00000,0.00000,0.00000,0.00000,0.00000,,1.936258E-05,,0,
536,02/02/2022 20:23:52.845,10404.277,10404.277,1,1,0.00000,3.40169,0.00000,0.00000,0.00000,0.00000,0.00000,,-2.647208E-05,,,
541,02/02/2022 20:25:32.851,10504.283,10504.283,1,1,0.00000,3.40125,0.00000,0.00000,0.00000,0.00000,0.00000,,4.516544E-05,,,
546,02/02/2022 20:27:12.855,10604.287,10604.287,1,1,0.00000,3.40178,0.00000,0.00000,0.00000,0.00000,0.00000,,5.22781E-05,,,
551,02/02/2022 20:28:52.860,10704.292,10704.292,1,1,0.00000,3.40253,0.00000,0.00000,0.00000,0.00000,0.00000,,4.962773E-05,,,
556,02/02/2022 20:30:32.862,10804.294,10804.294,1,1,0.00000,3.40200,0.00000,0.00000,0.00000,0.00000,0.00000,,3.449243E-05,,,
561,02/02/2022 20:32:12.865,10904.297,10904.297,1,1,0.00000,3.39965,0.00000,0.00000,0.00000,0.00000,0.00000,,0.0001454485,,0,
566,02/02/2022 20:33:52.871,11004.303,11004.303,1,1,0.00000,3.40047,0.00000,0.00000,0.00000,0.00000,0.00000,,5.373704E-05,,,
571,02/02/2022 20:35:32.873,11104.305,11104.305,1,1,0.00000,3.39983,0.00000,0.00000,0.00000,0.00000,0.00000,,-4.274937E-05,,,
576,02/02/2022 20:37:12.880,11204.312,11204.312,1,1,0.00000,3.39964,0.00000,0.00000,0.00000,0.00000,0.00000,,7.803206E-05,,,
581,02/02/2022 20:38:52.886,11304.318,11304.318,1,1,0.00000,3.39967,0.00000,0.00000,0.00000,0.00000,0.00000,,-8.166698E-05,,,
586,02/02/2022 20:40:32.893,11404.324,11404.324,1,1,0.00000,3.39893,0.00000,0.00000,0.00000,0.00000,0.00000,,-8.383398E-05,,,
591,02/02/2022 20:42:12.896,11504.328,11504.328,1,1,0.00000,3.40107,0.00000,0.00000,0.00000,0.00000,0.00000,,-7.120275E-05,,0,
596,02/02/2022 20:43:52.904,11604.336,11604.336,1,1,0.00000,3.40144,0.00000,0.00000,0.00000,0.00000,0.00000,,4.054254E-05,,,
601,02/02/2022 20:45:32.908,11704.340,11704.340,1,1,0.00000,3.40071,0.00000,0.00000,0.00000,0.00000,0.00000,,2.702433E-05,,,
606,02/02/2022 20:47:12.915,11804.347,11804.347,1,1,0.00000,3.40251,0.00000,0.00000,0.00000,0.00000,0.00000,,6.404502E-05,,,
611,02/02/2022 20:48:52.921,11904.352,11904.352,1,1,0.00000,3.40202,0.00000,0.00000,0.00000,0.00000,0.00000,,1.343515E-05,,,
616,02/02/2022 20:50:32.925,12004.357,12004.357,1,1,0.00000,3.40079,0.00000,0.00000,0.00000,0.00000,0.00000,,9.246008E-06,,,
621,02/02/2022 20:52:12.929,12104.361,12104.361,1,1,0.00000,3.40033,0.00000,0.00000,0.00000,0.00000,0.00000,,6.132446E-05,,0,
626,02/02/2022 20:53:52.936,12204.367,12204.367,1,1,0.00000,3.39762,0.00000,0.00000,0.00000,0.00000,0.00000,,-0.000128359,,,
631,02/02/2022 20:55:32.939,12304.371,12304.371,1,1,0.00000,3.39500,0.00000,0.00000,0.00000,0.00000,0.00000,,1.434233E-05,,,
636,02/02/2022 20:57:12.945,12404.377,12404.377,1,1,0.00000,3.39465,0.00000,0.00000,0.00000,0.00000,0.00000,,-7.302036E-05,,,
641,02/02/2022 20:58:52.949,12504.381,12504.381,1,1,0.00000,3.39444,0.00000,0.00000,0.00000,0.00000,0.00000,,-0.0002325332,,,
646,02/02/2022 21:00:32.955,12604.387,12604.387,1,1,0.00000,3.39583,0.00000,0.00000,0.00000,0.00000,0.00000,,-0.0002071293,,,
651,02/02/2022 21:02:12.959,12704.391,12704.391,1,1,0.00000,3.39264,0.00000,0.00000,0.00000,0.00000,0.00000,,-0.0001981928,,,
656,02/02/2022 21:03:52.967,12804.399,12804.399,1,1,0.00000,3.39124,0.00000,0.00000,0.00000,0.00000,0.00000,,0.0002778528,,,
661,02/02/2022 21:05:32.971,12904.403,12904.403,1,1,0.00000,3.39325,0.00000,0.00000,0.00000,0.00000,0.00000,,0.001091462,,,
666,02/02/2022 21:07:12.976,13004.408,13004.408,1,1,0.00000,3.39201,0.00000,0.00000,0.00000,0.00000,0.00000,,0.0001250145,,,
671,02/02/2022 21:08:52.980,13104.412,13104.412,1,1,0.00000,3.38780,0.00000,0.00000,0.00000,0.00000,0.00000,,-1.951935E-05,,,
676,02/02/2022 21:10:32.987,13204.419,13204.419,1,1,0.00000,3.38927,0.00000,0.00000,0.00000,0.00000,0.00000,,0.0002086373,,0,
681,02/02/2022 21:12:12.993,13304.424,13304.424,1,1,0.00000,3.39220,0.00000,0.00000,0.00000,0.00000,0.00000,,6.733046E-05,,,
686,02/02/2022 21:13:52.997,13404.428,13404.428,1,1,0.00000,3.38184,0.00000,0.00000,0.00000,0.00000,0.00000,,-9.034125E-05,,,
691,02/02/2022 21:15:33.002,13504.434,13504.434,1,1,0.00000,3.39120,0.00000,0.00000,0.00000,0.00000,0.00000,,-0.0001846786,,,
696,02/02/2022 21:17:13.006,13604.438,13604.438,1,1,0.00000,3.38275,0.00000,0.00000,0.00000,0.00000,0.00000,,0.0001113248,,,
701,02/02/2022 21:18:53.010,13704.442,13704.442,1,1,0.00000,3.37932,0.00000,0.00000,0.00000,0.00000,0.00000,,1.461867E-06,,,
706,02/02/2022 21:20:33.016,13804.447,13804.447,1,1,0.00000,3.37947,0.00000,0.00000,0.00000,0.00000,0.00000,,-7.725275E-05,,0,
711,02/02/2022 21:22:13.022,13904.454,13904.454,1,1,0.00000,3.37610,0.00000,0.00000,0.00000,0.00000,0.00000,,8.683544E-05,,,
716,02/02/2022 21:23:53.027,14004.459,14004.459,1,1,0.00000,3.37795,0.00000,0.00000,0.00000,0.00000,0.00000,,-3.868276E-05,,,
721,02/02/2022 21:25:33.030,14104.461,14104.461,1,1,0.00000,3.37910,0.00000,0.00000,0.00000,0.00000,0.00000,,-2.224408E-05,,,
726,02/02/2022 21:27:13.034,14204.466,14204.466,1,1,0.00000,3.39042,0.00000,0.00000,0.00000,0.00000,0.00000,,0.000164362,,,
731,02/02/2022 21:28:53.039,14304.471,14304.471,1,1,0.00000,3.38971,0.00000,0.00000,0.00000,0.00000,0.00000,,0.0001003559,,,
736,02/02/2022 21:30:28.569,14400.001,14400.001,1,1,0.00000,3.38245,0.00000,0.00000,0.00000,0.00000,0.00000,,-0.0004788291,0,0,0
741,02/02/2022 21:30:28.677,14400.109,0.028,1,2,0.00001,3.92103,0.00004,0.00000,0.00000,0.00000,0.00000,,,,,
746,02/02/2022 21:30:28.812,14400.244,0.006,1,3,0.00000,3.87856,0.00000,0.00000,0.00000,0.00000,0.00000,,10.01308,,,
751,02/02/2022 21:30:28.896,14400.328,0.091,1,3,0.00000,3.81711,0.00000,0.00000,0.00000,0.00000,0.00000,,,,,
756,02/02/2022 21:30:28.957,14400.389,0.151,1,3,0.00000,3.75147,0.00000,0.00000,0.00000,0.00000,0.00000,,,,,
761,02/02/2022 21:30:29.053,14400.485,0.248,1,3,0.00000,3.69447,0.00000,0.00000,0.00000,0.00000,0.00000,,,,,
766,02/02/2022 21:30:29.215,14400.647,0.409,1,3,0.00000,3.63797,0.00000,0.00000,0.00000,0.00000,0.00000,,,,,
771,02/02/2022 21:30:29.467,14400.899,0.661,1,3,0.00000,3.58660,0.00000,0.00000,0.00000,0.00000,0.00000,,,,,
776,02/02/2022 21:30:29.875,14401.307,1.069,1,3,0.00000,3.53548,0.00000,0.00000,0.00000,0.00000,0.00000,,,,,
781,02/02/2022 21:30:30.631,14402.063,1.825,1,3,0.00000,3.48428,0.00000,0.00000,0.00000,0.00000,0.00000,,,,,
786,02/02/2022 21:30:32.429,14403.861,3.624,1,3,0.00000,3.43388,0.00000,0.00000,0.00000,0.00000,0.00000,,-0.01657468,,,
791,02/02/2022 21:30:55.182,14426.614,26.376,1,3,0.00000,3.38358,0.00000,0.00000,0.00000,0.00000,0.00000,,-0.0004443911,,,
796,02/02/2022 21:32:35.186,14526.618,126.381,1,3,0.00000,3.38039,0.00000,0.00000,0.00000,0.00000,0.00000,,-0.000702856,,0,
801,02/02/2022 21:34:15.191,14626.623,226.385,1,3,0.00000,3.37789,0.00000,0.00000,0.00000,0.00000,0.00000,,0.0001295511,,,
806,02/02/2022 21:35:55.195,14726.627,326.389,1,3,0.00000,3.38178,0.00000,0.00000,0.00000,0.00000,0.00000,,3.303028E-05,,,
811,02/02/2022 21:37:35.198,14826.630,426.392,1,3,0.00000,3.38679,0.00000,0.00000,0.00000,0.00000,0.00000,,-9.720807E-06,,,
816,02/02/2022 21:39:15.201,14926.633,526.395,1,3,0.00000,3.38968,0.00000,0.00000,0.00000,0.00000,0.00000,,0.0006192353,,,
821,02/02/2022 21:40:55.205,15026.637,626.399,1,3,0.00000,3.38564,0.00000,0.00000,0.00000,0.00000,0.00000,,-8.297359E-05,,,
826,02/02/2022 21:42:35.209,15126.641,726.404,1,3,0.00000,3.37227,0.00000,0.00000,0.00000,0.00000,0.00000,,-1.79785E-05,,0,
831,02/02/2022 21:44:15.215,15226.647,826.409,1,3,0.00000,3.37427,0.00000,0.00000,0.00000,0.00000,0.00000,,9.7249E-05,,,
836,02/02/2022 21:45:55.220,15326.652,926.414,1,3,0.00000,3.37560,0.00000,0.00000,0.00000,0.00000,0.00000,,0.0001571742,,,
841,02/02/2022 21:47:35.225,15426.657,1026.419,1,3,0.00000,3.37529,0.00000,0.00000,0.00000,0.00000,0.00000,,2.963611E-06,,,
846,02/02/2022 21:49:15.229,15526.661,1126.423,1,3,0.00000,3.37612,0.00000,0.00000,0.00000,0.00000,0.00000,,8.025526E-05,,,
851,02/02/2022 21:50:55.233,15626.665,1226.428,1,3,0.00000,3.37588,0.00000,0.00000,0.00000,0.00000,0.00000,,5.200236E-05,,0,
856,02/02/2022 21:52:35.237,15726.669,1326.432,1,3,0.00000,3.37858,0.00000,0.00000,0.00000,0.00000,0.00000,,5.70956E-05,,,
861,02/02/2022 21:54:15.240,15826.672,1426.435,1,3,0.00000,3.38278,0.00000,0.00000,0.00000,0.00000,0.00000,,6.282492E-06,,,
866,02/02/2022 21:55:55.244,15926.675,1526.438,1,3,0.00000,3.38024,0.00000,0.00000,0.00000,0.00000,0.00000,,-0.0002516463,,,
871,02/02/2022 21:57:35.246,16026.678,1626.441,1,3,0.00000,3.37696,0.00000,0.00000,0.00000,0.00000,0.00000,,2.667096E-05,,,
876,02/02/2022 21:59:15.249,16126.680,1726.443,1,3,0.00000,3.37889,0.00000,0.00000,0.00000,0.00000,0.00000,,3.497148E-05,,,
881,02/02/2022 22:00:55.251,16226.683,1826.445,1,3,0.00000,3.37965,0.00000,0.00000,0.00000,0.00000,0.00000,,1.62E-06,,0,
886,02/02/2022 22:02:35.256,16326.687,1926.450,1,3,0.00000,3.38098,0.00000,0.00000,0.00000,0.00000,0.00000,,-5.788153E-05,,,
891,02/02/2022 22:04:15.260,16426.691,2026.454,1,3,0.00000,3.38377,0.00000,0.00000,0.00000,0.00000,0.00000,,-5.329931E-05,,,
896,02/02/2022 22:05:55.264,16526.696,2126.459,1,3,0.00000,3.38671,0.00000,0.00000,0.00000,0.00000,0.00000,,-5.729316E-06,,,
901,02/02/2022 22:07:35.266,16626.698,2226.460,1,3,0.00000,3.38799,0.00000,0.00000,0.00000,0.00000,0.00000,,2.406333E-05,,,
906,02/02/2022 22:09:15.268,16726.700,2326.462,1,3,0.00000,3.38925,0.00000,0.00000,0.00000,0.00000,0.00000,,3.53239E-05,,,
911,02/02/2022 22:10:55.272,16826.704,2426.466,1,3,0.00000,3.38977,0.00000,0.00000,0.00000,0.00000,0.00000,,7.858911E-05,,0,
916,02/02/2022 22:12:35.275,16926.707,2526.469,1,3,0.00000,3.39002,0.00000,0.00000,0.00000,0.00000,0.00000,,-2.915879E-05,,,
921,02/02/2022 22:14:15.280,17026.712,2626.474,1,3,0.00000,3.39014,0.00000,0.00000,0.00000,0.00000,0.00000,,-4.425109E-05,,,
926,02/02/2022 22:15:55.286,17126.718,2726.481,1,3,0.00000,3.39068,0.00000,0.00000,0.00000,0.00000,0.00000,,6.527524E-05,,,
931,02/02/2022 22:17:35.290,17226.722,2826.484,1,3,0.00000,3.39023,0.00000,0.00000,0.00000,0.00000,0.00000,,-3.647006E-05,,,
936,02/02/2022 22:19:15.294,17326.726,2926.488,1,3,0.00000,3.39050,0.00000,0.00000,0.00000,0.00000,0.00000,,-6.199567E-05,,,
941,02/02/2022 22:20:55.298,17426.730,3026.492,1,3,0.00000,3.39184,0.00000,0.00000,0.00000,0.00000,0.00000,,-0.0006950453,,0,
946,02/02/2022 22:22:35.300,17526.732,3126.495,1,3,0.00000,3.39459,0.00000,0.00000,0.00000,0.00000,0.00000,,-5.777114E-05,,,
951,02/02/2022 22:24:15.305,17626.737,3226.499,1,3,0.00000,3.39908,0.00000,0.00000,0.00000,0.00000,0.00000,,9.306204E-05,,,
956,02/02/2022 22:25:55.309,17726.741,3326.504,1,3,0.00000,3.40195,0.00000,0.00000,0.00000,0.00000,0.00000,,-1.785951E-05,,,
961,02/02/2022 22:27:35.312,17826.744,3426.506,1,3,0.00000,3.40305,0.00000,0.00000,0.00000,0.00000,0.00000,,7.372487E-05,,,
966,02/02/2022 22:29:15.316,17926.747,3526.510,1,3,0.00000,3.40386,0.00000,0.00000,0.00000,0.00000,0.00000,,1.691136E-05,,0,
971,02/02/2022 22:30:28.895,18000.327,0.008,1,4,0.00000,3.44307,0.00000,0.00000,0.00000,0.00000,0.00000,,0.05278798,,,
976,02/02/2022 22:30:28.971,18000.403,0.084,1,4,-0.00002,2.09714,-0.00003,0.00000,0.00000,0.00000,0.00000,,,,,
981,02/02/2022 22:30:29.090,18000.522,0.058,1,5,0.00000,3.14282,0.00000,0.00000,0.00000,0.00000,0.00000,,,,,
986,02/02/2022 22:30:29.157,18000.589,0.125,1,5,0.00000,3.20672,0.00000,0.00000,0.00000,0.00000,0.00000,,,,,
991,02/02/2022 22:30:29.243,18000.675,0.211,1,5,0.00000,3.26372,0.00000,0.00000,0.00000,0.00000,0.00000,,,,,
996,02/02/2022 22:30:29.433,18000.864,0.400,1,5,0.00000,3.31858,0.00000,0.00000,0.00000,0.00000,0.00000,,,,,
1001,02/02/2022 22:30:30.251,18001.683,1.219,1,5,0.00000,3.36972,0.00000,0.00000,0.00000,0.00000,0.00000,,0.03001038,,,
1006,02/02/2022 22:31:23.003,18054.435,53.971,1,5,0.00000,3.40298,0.00000,0.00000,0.00000,0.00000,0.00000,,6.405405E-05,,,
1011,02/02/2022 22:33:03.005,18154.437,153.973,1,5,0.00000,3.40427,0.00000,0.00000,0.00000,0.00000,0.00000,,3.188687E-05,,,
1016,02/02/2022 22:34:43.010,18254.442,253.978,1,5,0.00000,3.40496,0.00000,0.00000,0.00000,0.00000,0.00000,,5.310175E-05,,0,
1021,02/02/2022 22:36:23.013,18354.445,353.981,1,5,0.00000,3.40537,0.00000,0.00000,0.00000,0.00000,0.00000,,6.784301E-05,,,
1026,02/02/2022 22:38:03.017,18454.449,453.985,1,5,0.00000,3.40523,0.00000,0.00000,0.00000,0.00000,0.00000,,7.112196E-06,,,
1031,02/02/2022 22:39:43.022,18554.454,553.990,1,5,0.00000,3.40628,0.00000,0.00000,0.00000,0.00000,0.00000,,1.671366E-05,,,
1036,02/02/2022 22:41:23.026,18654.457,653.993,1,5,0.00000,3.40594,0.00000,0.00000,0.00000,0.00000,0.00000,,-5.927272E-07,,,
1041,02/02/2022 22:43:03.029,18754.461,753.997,1,5,0.00000,3.40637,0.00000,0.00000,0.00000,0.00000,0.00000,,5.231415E-05,,,
1046,02/02/2022 22:44:43.031,18854.463,853.999,1,5,0.00000,3.40695,0.00000,0.00000,0.00000,0.00000,0.00000,,-3.414052E-05,,0,
1051,02/02/2022 22:46:23.035,18954.467,954.003,1,5,0.00000,3.40657,0.00000,0.00000,0.00000,0.00000,0.00000,,-1.797716E-05,,,
1056,02/02/2022 22:48:03.039,19054.471,1054.007,1,5,0.00000,3.40691,0.00000,0.00000,0.00000,0.00000,0.00000,,-4.749681E-05,,,
1061,02/02/2022 22:49:43.045,19154.476,1154.013,1,5,0.00000,3.40655,0.00000,0.00000,0.00000,0.00000,0.00000,,-1.110376E-05,,,
1066,02/02/2022 22:51:23.049,19254.481,1254.017,1,5,0.00000,3.40627,0.00000,0.00000,0.00000,0.00000,0.00000,,6.100431E-05,,,
1071,02/02/2022 22:53:03.053,19354.484,1354.020,1,5,0.00000,3.40676,0.00000,0.00000,0.00000,0.00000,0.00000,,-4.168641E-05,,,
1076,02/02/2022 22:54:43.056,19454.487,1454.024,1,5,0.00000,3.40666,0.00000,0.00000,0.00000,0.00000,0.00000,,1.600244E-05,,0,
1081,02/02/2022 22:56:23.057,19554.489,1554.025,1,5,0.00000,3.40724,0.00000,0.00000,0.00000,0.00000,0.00000,,2.611756E-05,,,
1086,02/02/2022 22:58:03.060,19654.492,1654.028,1,5,0.00000,3.40705,0.00000,0.00000,0.00000,0.00000,0.00000,,-8.960282E-05,,,
1091,02/02/2022 22:59:43.063,19754.495,1754.031,1,5,0.00000,3.40701,0.00000,0.00000,0.00000,0.00000,0.00000,,5.208053E-05,,,
1096,02/02/2022 23:01:23.066,19854.498,1854.034,1,5,0.00000,3.40733,0.00000,0.00000,0.00000,0.00000,0.00000,,-3.761343E-05,,,
1101,02/02/2022 23:03:03.071,19954.502,1954.039,1,5,0.00000,3.40786,0.00000,0.00000,0.00000,0.00000,0.00000,,-9.166299E-06,,0,
1106,02/02/2022 23:04:43.075,20054.506,2054.042,1,5,0.00000,3.40793,0.00000,0.00000,0.00000,0.00000,0.00000,,8.100538E-05,,,
1111,02/02/2022 23:06:23.078,20154.510,2154.046,1,5,0.00000,3.40853,0.00000,0.00000,0.00000,0.00000,0.00000,,1.244665E-05,,,
1116,02/02/2022 23:08:03.082,20254.514,2254.050,1,5,0.00000,3.40865,0.00000,0.00000,0.00000,0.00000,0.00000,,1.513317E-05,,,
1121,02/02/2022 23:09:43.086,20354.518,2354.054,1,5,0.00000,3.40888,0.00000,0.00000,0.00000,0.00000,0.00000,,-6.333858E-05,,,
1126,02/02/2022 23:11:23.092,20454.523,2454.060,1,5,0.00000,3.40905,0.00000,0.00000,0.00000,0.00000,0.00000,,-1.173619E-05,,,
1131,02/02/2022 23:13:03.097,20554.529,2554.065,1,5,0.00000,3.40914,0.00000,0.00000,0.00000,0.00000,0.00000,,1.608253E-05,,0,
1136,02/02/2022 23:14:43.100,20654.532,2654.068,1,5,0.00000,3.40878,0.00000,0.00000,0.00000,0.00000,0.00000,,-1.635941E-05,,,
1141,02/02/2022 23:16:23.103,20754.535,2754.071,1,5,0.00000,3.40935,0.00000,0.00000,0.00000,0.00000,0.00000,,4.188328E-05,,,
1146,02/02/2022 23:18:03.109,20854.541,2854.077,1,5,0.00000,3.40896,0.00000,0.00000,0.00000,0.00000,0.00000,,-3.255805E-05,,,
1151,02/02/2022 23:19:43.112,20954.544,2954.080,1,5,0.00000,3.40897,0.00000,0.00000,0.00000,0.00000,0.00000,,-3.38202E-05,,,
1156,02/02/2022 23:21:23.116,21054.548,3054.084,1,5,0.00000,3.40930,0.00000,0.00000,0.00000,0.00000,0.00000,,-6.440542E-05,,,
1161,02/02/2022 23:23:03.120,21154.551,3154.087,1,5,0.00000,3.40966,0.00000,0.00000,0.00000,0.00000,0.00000,,7.22738E-05,,0,
1166,02/02/2022 23:24:43.124,21254.555,3254.092,1,5,0.00000,3.40979,0.00000,0.00000,0.00000,0.00000,0.00000,,1.236763E-05,,,
1171,02/02/2022 23:26:23.128,21354.559,3354.096,1,5,0.00000,3.40949,0.00000,0.00000,0.00000,0.00000,0.00000,,4.860363E-06,,,
1176,02/02/2022 23:28:03.134,21454.566,3454.102,1,5,0.00000,3.40984,0.00000,0.00000,0.00000,0.00000,0.00000,,9.047769E-06,,,
1181,02/02/2022 23:29:43.137,21554.569,3554.105,1,5,0.00000,3.40994,0.00000,0.00000,0.00000,0.00000,0.00000,,-2.157402E-05,,,
1186,02/02/2022 23:30:29.124,21600.556,0.003,2,2,0.00000,3.43538,0.00000,0.00000,0.00000,0.00000,0.00000,,0.0171921,,,
1191,02/02/2022 23:30:29.153,21600.584,0.032,2,2,0.00003,4.63087,0.00013,0.00000,0.00000,0.00000,0.00000,,,,,
1196,02/02/2022 23:30:29.308,21600.740,0.044,2,3,0.00000,3.67550,0.00000,0.00000,0.00000,0.00000,0.00000,,,,,
1201,02/02/2022 23:30:29.381,21600.813,0.117,2,3,0.00000,3.61276,0.00000,0.00000,0.00000,0.00000,0.00000,,,,,
1206,02/02/2022 23:30:29.471,21600.903,0.207,2,3,0.00000,3.55432,0.00000,0.00000,0.00000,0.00000,0.00000,,,,,
1211,02/02/2022 23:30:29.684,21601.115,0.419,2,3,0.00000,3.49940,0.00000,0.00000,0.00000,0.00000,0.00000,,,,,
1216,02/02/2022 23:30:30.502,21601.934,1.238,2,3,0.00000,3.44852,0.00000,0.00000,0.00000,0.00000,0.00000,,,,,
1221,02/02/2022 23:31:16.550,21647.982,47.286,2,3,0.00000,3.41218,0.00000,0.00000,0.00000,0.00000,0.00000,,3.082003E-06,,,
1226,02/02/2022 23:32:56.554,21747.986,147.290,2,3,0.00000,3.41120,0.00000,0.00000,0.00000,0.00000,0.00000,,-2.548389E-05,,,
1231,02/02/2022 23:34:36.559,21847.991,247.295,2,3,0.00000,3.41093,0.00000,0.00000,0.00000,0.00000,0.00000,,1.738551E-06,,0,
1236,02/02/2022 23:36:16.562,21947.994,347.298,2,3,0.00000,3.41098,0.00000,0.00000,0.00000,0.00000,0.00000,,1.319718E-05,,,
1241,02/02/2022 23:37:56.565,22047.997,447.301,2,3,0.00000,3.41086,0.00000,0.00000,0.00000,0.00000,0.00000,,3.958925E-05,,,
1246,02/02/2022 23:39:36.569,22148.001,547.305,2,3,0.00000,3.41139,0.00000,0.00000,0.00000,0.00000,0.00000,,3.595431E-05,,,
1251,02/02/2022 23:41:16.573,22248.005,647.309,2,3,0.00000,3.41099,0.00000,0.00000,0.00000,0.00000,0.00000,,4.374E-05,,,
1256,02/02/2022 23:42:56.577,22348.008,747.312,2,3,0.00000,3.41123,0.00000,0.00000,0.00000,0.00000,0.00000,,-3.291612E-05,,,
1261,02/02/2022 23:44:36.581,22448.012,847.316,2,3,0.00000,3.41160,0.00000,0.00000,0.00000,0.00000,0.00000,,6.440168E-06,,0,
1266,02/02/2022 23:46:16.586,22548.018,947.321,2,3,0.00000,3.41167,0.00000,0.00000,0.00000,0.00000,0.00000,,5.701232E-05,,,
1271,02/02/2022 23:47:56.589,22648.021,1047.325,2,3,0.00000,3.41130,0.00000,0.00000,0.00000,0.00000,0.00000,,4.184342E-05,,,
1276,02/02/2022 23:49:36.593,22748.025,1147.329,2,3,0.00000,3.41113,0.00000,0.00000,0.00000,0.00000,0.00000,,2.098098E-05,,,
1281,02/02/2022 23:51:16.596,22848.028,1247.332,2,3,0.00000,3.41185,0.00000,0.00000,0.00000,0.00000,0.00000,,-3.903838E-05,,,
1286,02/02/2022 23:52:56.602,22948.034,1347.338,2,3,0.00000,3.41136,0.00000,0.00000,0.00000,0.00000,0.00000,,5.156385E-05,,0,
1291,02/02/2022 23:54:36.604,23048.036,1447.340,2,3,0.00000,3.41161,0.00000,0.00000,0.00000,0.00000,0.00000,,6.338177E-05,,,
1296,02/02/2022 23:56:16.611,23148.043,1547.347,2,3,0.00000,3.41179,0.00000,0.00000,0.00000,0.00000,0.00000,,6.717631E-07,,,
1301,02/02/2022 23:57:56.612,23248.044,1647.348,2,3,0.00000,3.41197,0.00000,0.00000,0.00000,0.00000,0.00000,,-5.938733E-05,,,
1306,02/02/2022 23:59:36.618,23348.050,1747.354,2,3,0.00000,3.41195,0.00000,0.00000,0.00000,0.00000,0.00000,,-2.362829E-05,,,
1311,02/03/2022 00:01:16.621,23448.053,1847.357,2,3,0.00000,3.41216,0.00000,0.00000,0.00000,0.00000,0.00000,,-3.67886E-05,,,
1316,02/03/2022 00:02:56.624,23548.056,1947.359,2,3,0.00000,3.41239,0.00000,0.00000,0.00000,0.00000,0.00000,,6.721582E-05,,0,
1321,02/03/2022 00:04:36.627,23648.059,2047.362,2,3,0.00000,3.41283,0.00000,0.00000,0.00000,0.00000,0.00000,,2.27611E-05,,,
1326,02/03/2022 00:06:16.629,23748.061,2147.365,2,3,0.00000,3.41278,0.00000,0.00000,0.00000,0.00000,0.00000,,-5.274922E-05,,,
1331,02/03/2022 00:07:56.632,23848.064,2247.367,2,3,0.00000,3.41285,0.00000,0.00000,0.00000,0.00000,0.00000,,9.087881E-06,,,
1336,02/03/2022 00:09:36.634,23948.066,2347.370,2,3,0.00000,3.41284,0.00000,0.00000,0.00000,0.00000,0.00000,,3.085724E-05,,,
1341,02/03/2022 00:11:16.636,24048.068,2447.372,2,3,0.00000,3.41235,0.00000,0.00000,0.00000,0.00000,0.00000,,-4.358521E-05,,,
1346,02/03/2022 00:12:56.639,24148.070,2547.374,2,3,0.00000,3.41304,0.00000,0.00000,0.00000,0.00000,0.00000,,-4.468904E-05,,0,
1351,02/03/2022 00:14:36.641,24248.073,2647.377,2,3,0.00000,3.41260,0.00000,0.00000,0.00000,0.00000,0.00000,,5.037805E-05,,,
1356,02/03/2022 00:16:16.646,24348.078,2747.382,2,3,0.00000,3.41313,0.00000,0.00000,0.00000,0.00000,0.00000,,-1.904362E-05,,,
1361,02/03/2022 00:17:56.651,24448.083,2847.387,2,3,0.00000,3.41323,0.00000,0.00000,0.00000,0.00000,0.00000,,1.999185E-05,,,
1366,02/03/2022 00:19:36.654,24548.086,2947.389,2,3,0.00000,3.41275,0.00000,0.00000,0.00000,0.00000,0.00000,,4.642953E-05,,,
1371,02/03/2022 00:21:16.657,24648.089,3047.393,2,3,0.00000,3.41318,0.00000,0.00000,0.00000,0.00000,0.00000,,-4.820129E-05,,,
1376,02/03/2022 00:22:56.661,24748.093,3147.397,2,3,0.00000,3.41327,0.00000,0.00000,0.00000,0.00000,0.00000,,1.039179E-05,,0,
1381,02/03/2022 00:24:36.665,24848.096,3247.400,2,3,0.00000,3.41301,0.00000,0.00000,0.00000,0.00000,0.00000,,9.008856E-06,,,
1386,02/03/2022 00:26:16.668,24948.100,3347.404,2,3,0.00000,3.41343,0.00000,0.00000,0.00000,0.00000,0.00000,,-2.754E-05,,,
1391,02/03/2022 00:27:56.672,25048.104,3447.407,2,3,0.00000,3.41344,0.00000,0.00000,0.00000,0.00000,0.00000,,-6.322476E-07,,,
1396,02/03/2022 00:29:36.674,25148.106,3547.410,2,3,0.00000,3.41343,0.00000,0.00000,0.00000,0.00000,0.00000,,-7.202716E-05,,,
1401,02/03/2022 00:30:29.364,25200.796,0.016,2,4,0.00000,3.24517,-0.00002,0.00000,0.00000,0.00000,0.00000,,,,,
1406,02/03/2022 00:30:29.440,25200.872,0.093,2,4,-0.00003,1.98952,-0.00005,0.00000,0.00000,0.00000,0.00000,,-0.001487412,0,0,0
1411,02/03/2022 00:30:29.582,25201.014,0.082,2,5,0.00000,3.23363,0.00000,0.00000,0.00000,0.00000,0.00000,,,,,
1416,02/03/2022 00:30:29.666,25201.098,0.166,2,5,0.00000,3.29797,0.00000,0.00000,0.00000,0.00000,0.00000,,,,,
1421,02/03/2022 00:30:29.874,25201.306,0.374,2,5,0.00000,3.34997,0.00000,0.00000,0.00000,0.00000,0.00000,,,,,
1426,02/03/2022 00:30:32.421,25203.853,2.921,2,5,0.00000,3.40028,0.00000,0.00000,0.00000,0.00000,0.00000,,0.005805742,,,
1431,02/03/2022 00:32:10.585,25302.017,101.085,2,5,0.00000,3.41198,0.00000,0.00000,0.00000,0.00000,0.00000,,-5.156812E-05,,,
1436,02/03/2022 00:33:50.588,25402.020,201.088,2,5,0.00000,3.41305,0.00000,0.00000,0.00000,0.00000,0.00000,,-4.350329E-05,,,
1441,02/03/2022 00:35:30.592,25502.023,301.091,2,5,0.00000,3.41323,0.00000,0.00000,0.00000,0.00000,0.00000,,2.394459E-05,,,
1446,02/03/2022 00:37:10.595,25602.026,401.094,2,5,0.00000,3.41289,0.00000,0.00000,0.00000,0.00000,0.00000,,-6.534938E-05,,,
1451,02/03/2022 00:38:50.599,25702.031,501.098,2,5,0.00000,3.41298,0.00000,0.00000,0.00000,0.00000,0.00000,,-4.978619E-05,,0,
1456,02/03/2022 00:40:30.602,25802.034,601.102,2,5,0.00000,3.41311,0.00000,0.00000,0.00000,0.00000,0.00000,,4.243329E-05,,,
1461,02/03/2022 00:42:10.607,25902.039,701.107,2,5,0.00000,3.41350,0.00000,0.00000,0.00000,0.00000,0.00000,,5.223643E-05,,,
1466,02/03/2022 00:43:50.610,26002.042,801.110,2,5,0.00000,3.41281,0.00000,0.00000,0.00000,0.00000,0.00000,,2.770012E-05,,,
1471,02/03/2022 00:45:30.614,26102.046,901.113,2,5,0.00000,3.41268,0.00000,0.00000,0.00000,0.00000,0.00000,,-3.986847E-05,,,
1476,02/03/2022 00:47:10.618,26202.050,1001.117,2,5,0.00000,3.41277,0.00000,0.00000,0.00000,0.00000,0.00000,,4.212E-05,,,
1481,02/03/2022 00:48:50.620,26302.051,1101.119,2,5,0.00000,3.41238,0.00000,0.00000,0.00000,0.00000,0.00000,,1.050972E-05,,0,
1486,02/03/2022 00:50:30.622,26402.054,1201.121,2,5,0.00000,3.41275,0.00000,0.00000,0.00000,0.00000,0.00000,,-2.236409E-05,,,
1491,02/03/2022 00:52:10.626,26502.058,1301.126,2,5,0.00000,3.41280,0.00000,0.00000,0.00000,0.00000,0.00000,,4.050303E-05,,,
1496,02/03/2022 00:53:50.629,26602.061,1401.129,2,5,0.00000,3.41237,0.00000,0.00000,0.00000,0.00000,0.00000,,2.272102E-05,,,
1501,02/03/2022 00:55:30.634,26702.066,1501.134,2,5,0.00000,3.41174,0.00000,0.00000,0.00000,0.00000,0.00000,,-4.251266E-05,,,
1506,02/03/2022 00:57:10.639,26802.071,1601.139,2,5,0.00000,3.41182,0.00000,0.00000,0.00000,0.00000,0.00000,,-2.366996E-05,,,
1511,02/03/2022 00:58:50.645,26902.077,1701.145,2,5,0.00000,3.41133,0.00000,0.00000,0.00000,0.00000,0.00000,,3.145432E-05,,0,
1516,02/03/2022 01:00:30.649,27002.081,1801.149,2,5,0.00000,3.41176,0.00000,0.00000,0.00000,0.00000,0.00000,,-1.090473E-05,,,
1521,02/03/2022 01:02:10.654,27102.086,1901.154,2,5,0.00000,3.41245,0.00000,0.00000,0.00000,0.00000,0.00000,,4.326335E-05,,,
1526,02/03/2022 01:03:50.660,27202.091,2001.159,2,5,0.00000,3.41281,0.00000,0.00000,0.00000,0.00000,0.00000,,1.311914E-05,,,
1531,02/03/2022 01:05:30.664,27302.096,2101.164,2,5,0.00000,3.41289,0.00000,0.00000,0.00000,0.00000,0.00000,,1.209083E-05,,,
1536,02/03/2022 01:07:10.669,27402.100,2201.168,2,5,0.00000,3.41213,0.00000,0.00000,0.00000,0.00000,0.00000,,-5.886927E-05,,,
1541,02/03/2022 01:08:50.673,27502.105,2301.173,2,5,0.00000,3.41247,0.00000,0.00000,0.00000,0.00000,0.00000,,-2.232643E-05,,0,
1546,02/03/2022 01:10:30.677,27602.109,2401.176,2,5,0.00000,3.41294,0.00000,0.00000,0.00000,0.00000,0.00000,,5.768829E-06,,,
1551,02/03/2022 01:12:10.682,27702.114,2501.182,2,5,0.00000,3.41313,0.00000,0.00000,0.00000,0.00000,0.00000,,5.325891E-05,,,
1556,02/03/2022 01:13:50.686,27802.118,2601.185,2,5,0.00000,3.41352,0.00000,0.00000,0.00000,0.00000,0.00000,,2.611951E-05,,,
1561,02/03/2022 01:15:30.691,27902.123,2701.190,2,5,0.00000,3.41283,0.00000,0.00000,0.00000,0.00000,0.00000,,-2.185025E-05,,,
1566,02/03/2022 01:17:10.695,28002.126,2801.194,2,5,0.00000,3.41297,0.00000,0.00000,0.00000,0.00000,0.00000,,9.36509E-06,,0,
1571,02/03/2022 01:18:50.700,28102.132,2901.199,2,5,0.00000,3.41247,0.00000,0.00000,0.00000,0.00000,0.00000,,3.279349E-06,,,
1576,02/03/2022 01:20:30.704,28202.136,3001.204,2,5,0.00000,3.41299,0.00000,0.00000,0.00000,0.00000,0.00000,,-5.492196E-06,,,
1581,02/03/2022 01:22:10.707,28302.139,3101.207,2,5,0.00000,3.41320,0.00000,0.00000,0.00000,0.00000,0.00000,,-3.674604E-05,,,
1586,02/03/2022 01:23:50.710,28402.142,3201.209,2,5,0.00000,3.41269,0.00000,0.00000,0.00000,0.00000,0.00000,,2.679171E-05,,,
1591,02/03/2022 01:25:30.714,28502.146,3301.214,2,5,0.00000,3.41286,0.00000,0.00000,0.00000,0.00000,0.00000,,-4.832742E-05,,,
1596,02/03/2022 01:27:10.717,28602.149,3401.217,2,5,0.00000,3.41290,0.00000,0.00000,0.00000,0.00000,0.00000,,-3.773259E-05,,0,
1601,02/03/2022 01:28:50.723,28702.154,3501.222,2,5,0.00000,3.41305,0.00000,0.00000,0.00000,0.00000,0.00000,,9.646892E-05,,,
1606,02/03/2022 01:30:29.501,28800.933,3600.001,2,5,0.00000,3.41296,0.00000,0.00000,0.00000,0.00000,0.00000,,1.592355E-05,0,0,0
1611,02/03/2022 01:30:29.621,28801.053,0.033,3,7,0.00006,5.21313,0.00033,0.00000,0.00000,0.00000,0.00000,,,,,
1616,02/03/2022 01:30:29.711,28801.143,0.005,3,8,-0.00024,-7.68364,0.00184,0.00000,0.00000,0.00000,0.00000,,-99.54139,0,0,0
1621,02/03/2022 01:30:29.766,28801.198,0.025,4,7,0.00009,4.19696,0.00037,0.00000,0.00000,0.00000,0.00000,,,,,
1626,02/03/2022 01:30:29.861,28801.293,0.003,4,8,-0.00025,-7.68162,0.00194,0.00000,0.00000,0.00000,0.00000,,132.7501,,,
1631,02/03/2022 01:30:29.912,28801.344,0.015,5,7,0.00004,3.00082,0.00013,0.00000,0.00000,0.00000,0.00000,,,,,
1636,02/03/2022 01:30:30.013,28801.445,0.006,5,8,-0.00021,-7.68386,0.00164,0.00000,0.00000,0.00000,0.00000,,-105.9987,,,
1641,02/03/2022 01:30:30.117,28801.548,0.073,6,10,0.00002,2.18757,0.00003,0.00000,0.00000,0.00000,0.00000,,-105.9987,0,0,0