File: Data/Data_220201_NMC/Martin_0201_Channel_35_IV&Aux__Wb_1.CSV
Data_Point,Date_Time,Test_Time(s),Step_Time(s),Cycle_Index,Step_Index,Current(A),Voltage(V),Power(W),Charge_Capacity(Ah),Discharge_Capacity(Ah),Charge_Energy(Wh),Discharge_Energy(Wh),ACR(Ohm),dV/dt(V/s),Internal_Resistance(Ohm),dQ/dV(Ah/V),dV/dQ(V/Ah)
1,02/03/2022 11:08:55.527,20.001,20.001,1,1,0.00000,1.25480,0.00000,0.00000,0.00000,0.00000,0.00000,,0.01824176,,,
4,02/03/2022 11:09:49.639,74.114,74.114,1,1,0.00000,1.27887,0.00000,0.00000,0.00000,0.00000,0.00000,,0.009411143,,,
7,02/03/2022 11:10:40.053,124.527,124.527,1,1,0.00000,1.29723,0.00000,0.00000,0.00000,0.00000,0.00000,,-0.02196371,,0,
10,02/03/2022 11:11:34.650,179.124,179.124,1,1,0.00000,1.32360,0.00000,0.00000,0.00000,0.00000,0.00000,,-0.0389417,,,
13,02/03/2022 11:12:29.409,233.884,233.884,1,1,0.00000,1.33987,0.00000,0.00000,0.00000,0.00000,0.00000,,-0.01524032,,,
16,02/03/2022 11:13:11.116,275.590,275.590,1,1,0.00000,1.36580,0.00000,0.00000,0.00000,0.00000,0.00000,,0.0004357064,,,
19,02/03/2022 11:14:04.027,328.501,328.501,1,1,0.00000,1.38523,0.00000,0.00000,0.00000,0.00000,0.00000,,0.01269553,,,
22,02/03/2022 11:14:56.480,380.955,380.955,1,1,0.00000,1.41134,0.00000,0.00000,0.00000,0.00000,0.00000,,0.02397119,,,
25,02/03/2022 11:15:52.372,436.846,436.846,1,1,0.00000,1.43018,0.00000,0.00000,0.00000,0.00000,0.00000,,0.0002364734,,,
28,02/03/2022 11:16:41.508,485.982,485.982,1,1,0.00000,1.45652,0.00000,0.00000,0.00000,0.00000,0.00000,,-0.02532469,,0,
31,02/03/2022 11:17:38.877,543.352,543.352,1,1,0.00000,1.47836,0.00000,0.00000,0.00000,0.00000,0.00000,,-0.01586667,,,
34,02/03/2022 11:18:29.549,594.023,594.023,1,1,0.00000,1.50395,0.00000,0.00000,0.00000,0.00000,0.00000,,0.0001892985,,,
37,02/03/2022 11:19:24.919,649.393,649.393,1,1,0.00000,1.52224,0.00000,0.00000,0.00000,0.00000,0.00000,,-0.01716069,,,
40,02/03/2022 11:20:13.765,698.239,698.239,1,1,0.00000,1.55039,0.00000,0.00000,0.00000,0.00000,0.00000,,-0.01787653,,,
43,02/03/2022 11:21:08.346,752.820,752.820,1,1,0.00000,1.57063,0.00000,0.00000,0.00000,0.00000,0.00000,,0.02045265,,,
46,02/03/2022 11:21:46.832,791.307,791.307,1,1,0.00000,1.59190,0.00000,0.00000,0.00000,0.00000,0.00000,,0.01774651,,,
49,02/03/2022 11:22:39.637,844.111,844.111,1,1,0.00000,1.61048,0.00000,0.00000,0.00000,0.00000,0.00000,,0.01645629,,,
52,02/03/2022 11:23:32.257,896.732,896.732,1,1,0.00000,1.63912,0.00000,0.00000,0.00000,0.00000,0.00000,,-0.0384133,,,
55,02/03/2022 11:24:31.849,956.323,956.323,1,1,0.00000,1.66249,0.00000,0.00000,0.00000,0.00000,0.00000,,0.02832051,,,
58,02/03/2022 11:25:19.788,1004.262,1004.262,1,1,0.00000,1.68638,0.00000,0.00000,0.00000,0.00000,0.00000,,0.02387383,,,
61,02/03/2022 11:26:15.853,1060.327,1060.327,1,1,0.00000,1.71217,0.00000,0.00000,0.00000,0.00000,0.00000,,0.0003293779,,,
64,02/03/2022 11:27:09.086,1113.560,1113.560,1,1,0.00000,1.73409,0.00000,0.00000,0.00000,0.00000,0.00000,,0.01698777,,,
67,02/03/2022 11:27:56.432,1160.906,1160.906,1,1,0.00000,1.75746,0.00000,0.00000,0.00000,0.00000,0.00000,,-0.01304301,,,
70,02/03/2022 11:28:56.254,1220.728,1220.728,1,1,0.00000,1.77772,0.00000,0.00000,0.00000,0.00000,0.00000,,-0.01513713,,0,
73,02/03/2022 11:29:39.152,1263.626,1263.626,1,1,0.00000,1.80339,0.00000,0.00000,0.00000,0.00000,0.00000,,0.02741814,,,
76,02/03/2022 11:30:37.794,1322.268,1322.268,1,1,0.00000,1.82679,0.00000,0.00000,0.00000,0.00000,0.00000,,-0.02030865,,,
79,02/03/2022 11:31:20.753,1365.227,1365.227,1,1,0.00000,1.84994,0.00000,0.00000,0.00000,0.00000,0.00000,,-0.04005836,,,
82,02/03/2022 11:32:14.969,1419.444,1419.444,1,1,0.00000,1.87070,0.00000,0.00000,0.00000,0.00000,0.00000,,-0.0278576,,,
85,02/03/2022 11:33:00.008,1464.482,1464.482,1,1,0.00000,1.89476,0.00000,0.00000,0.00000,0.00000,0.00000,,0.02116085,,,
88,02/03/2022 11:33:55.333,1519.808,1519.808,1,1,0.00000,1.91614,0.00000,0.00000,0.00000,0.00000,0.00000,,0.01103356,,,
91,02/03/2022 11:34:43.782,1568.256,1568.256,1,1,0.00000,1.94193,0.00000,0.00000,0.00000,0.00000,0.00000,,0.01326548,,,
94,02/03/2022 11:35:38.659,1623.133,1623.133,1,1,0.00000,1.96539,0.00000,0.00000,0.00000,0.00000,0.00000,,-0.01646827,,,
97,02/03/2022 11:36:34.723,1679.197,1679.197,1,1,0.00000,1.99235,0.00000,0.00000,0.00000,0.00000,0.00000,,-0.02469922,,,
100,02/03/2022 11:37:32.411,1736.885,1736.885,1,1,0.00000,2.01382,0.00000,0.00000,0.00000,0.00000,0.00000,,-0.01708056,,,
103,02/03/2022 11:38:19.538,1784.012,1784.012,1,1,0.00000,2.03887,0.00000,0.00000,0.00000,0.00000,0.00000,,0.01309037,,,
106,02/03/2022 11:39:08.777,1833.251,1833.251,1,1,0.00000,2.05809,0.00000,0.00000,0.00000,0.00000,0.00000,,0.02360161,,0,
109,02/03/2022 11:39:59.979,1884.453,1884.453,1,1,0.00000,2.08482,0.00000,0.00000,0.00000,0.00000,0.00000,,-0.01583725,,,
112,02/03/2022 11:40:55.283,1939.757,1939.757,1,1,0.00000,2.10436,0.00000,0.00000,0.00000,0.00000,0.00000,,-0.02732958,,0,
115,02/03/2022 11:41:46.093,1990.567,1990.567,1,1,0.00000,2.12868,0.00000,0.00000,0.00000,0.00000,0.00000,,0.01130956,,,
118,02/03/2022 11:42:32.485,2036.959,2036.959,1,1,0.00000,2.15337,0.00000,0.00000,0.00000,0.00000,0.00000,,0.001572985,,,
121,02/03/2022 11:43:27.290,2091.764,2091.764,1,1,0.00000,2.17201,0.00000,0.00000,0.00000,0.00000,0.00000,,0.0002212062,,,
124,02/03/2022 11:44:09.253,2133.727,2133.727,1,1,0.00000,2.19631,0.00000,0.00000,0.00000,0.00000,0.00000,,0.0125668,,,
127,02/03/2022 11:45:05.008,2189.483,2189.483,1,1,0.00000,2.21902,0.00000,0.00000,0.00000,0.00000,0.00000,,-0.025202,,0,
130,02/03/2022 11:45:54.964,2239.438,2239.438,1,1,0.00000,2.24427,0.00000,0.00000,0.00000,0.00000,0.00000,,-0.03169042,,,
133,02/03/2022 11:46:50.610,2295.084,2295.084,1,1,0.00000,2.26964,0.00000,0.00000,0.00000,0.00000,0.00000,,0.001496826,,,
136,02/03/2022 11:47:44.239,2348.713,2348.713,1,1,0.00000,2.28921,0.00000,0.00000,0.00000,0.00000,0.00000,,-0.02906757,,,
139,02/03/2022 11:48:34.669,2399.144,2399.144,1,1,0.00000,2.31646,0.00000,0.00000,0.00000,0.00000,0.00000,,0.03319786,,,
142,02/03/2022 11:49:27.223,2451.697,2451.697,1,1,0.00000,2.33342,0.00000,0.00000,0.00000,0.00000,0.00000,,0.01696026,,,
145,02/03/2022 11:50:07.820,2492.294,2492.294,1,1,0.00000,2.35940,0.00000,0.00000,0.00000,0.00000,0.00000,,-0.0280789,,,
148,02/03/2022 11:51:02.955,2547.429,2547.429,1,1,0.00000,2.38165,0.00000,0.00000,0.00000,0.00000,0.00000,,0.0003251574,,0,
151,02/03/2022 11:51:59.462,2603.936,2603.936,1,1,0.00000,2.40352,0.00000,0.00000,0.00000,0.00000,0.00000,,-0.01665935,,,
154,02/03/2022 11:52:43.131,2647.605,2647.605,1,1,0.00000,2.42906,0.00000,0.00000,0.00000,0.00000,0.00000,,0.02292066,,,
157,02/03/2022 11:53:32.549,2697.023,2697.023,1,1,0.00000,2.44671,0.00000,0.00000,0.00000,0.00000,0.00000,,0.01834047,,,
160,02/03/2022 11:54:25.684,2750.159,2750.159,1,1,0.00000,2.47537,0.00000,0.00000,0.00000,0.00000,0.00000,,-0.02728871,,,
163,02/03/2022 11:55:22.364,2806.839,2806.839,1,1,0.00000,2.49557,0.00000,0.00000,0.00000,0.00000,0.00000,,-0.01982147,,,
166,02/03/2022 11:56:07.632,2852.106,2852.106,1,1,0.00000,2.52005,0.00000,0.00000,0.00000,0.00000,0.00000,,0.0003992624,,,
169,02/03/2022 11:57:04.541,2909.015,2909.015,1,1,0.00000,2.54238,0.00000,0.00000,0.00000,0.00000,0.00000,,0.0001529675,,0,
172,02/03/2022 11:57:48.436,2952.911,2952.911,1,1,0.00000,2.56519,0.00000,0.00000,0.00000,0.00000,0.00000,,0.001793015,,,
175,02/03/2022 11:58:48.322,3012.796,3012.796,1,1,0.00000,2.58858,0.00000,0.00000,0.00000,0.00000,0.00000,,-0.02520516,,,
178,02/03/2022 11:59:43.438,3067.912,3067.912,1,1,0.00000,2.61629,0.00000,0.00000,0.00000,0.00000,0.00000,,0.0002080756,,,
181,02/03/2022 12:00:40.126,3124.600,3124.600,1,1,0.00000,2.64127,0.00000,0.00000,0.00000,0.00000,0.00000,,0.0119165,,,
184,02/03/2022 12:01:36.472,3180.946,3180.946,1,1,0.00000,2.66280,0.00000,0.00000,0.00000,0.00000,0.00000,,0.01058746,,,
187,02/03/2022 12:02:23.973,3228.447,3228.447,1,1,0.00000,2.68793,0.00000,0.00000,0.00000,0.00000,0.00000,,0.01758746,,,
190,02/03/2022 12:03:12.451,3276.925,3276.925,1,1,0.00000,2.70723,0.00000,0.00000,0.00000,0.00000,0.00000,,0.04630041,,0,
193,02/03/2022 12:04:05.972,3330.446,3330.446,1,1,0.00000,2.73278,0.00000,0.00000,0.00000,0.00000,0.00000,,0.02081144,,,
196,02/03/2022 12:05:00.816,3385.290,3385.290,1,1,0.00000,2.75306,0.00000,0.00000,0.00000,0.00000,0.00000,,0.01550591,,,
199,02/03/2022 12:05:49.538,3434.012,3434.012,1,1,0.00000,2.77822,0.00000,0.00000,0.00000,0.00000,0.00000,,0.003991585,,,
202,02/03/2022 12:06:39.964,3484.438,3484.438,1,1,0.00000,2.79579,0.00000,0.00000,0.00000,0.00000,0.00000,,-0.03869066,,,
205,02/03/2022 12:07:25.808,3530.282,3530.282,1,1,0.00000,2.82032,0.00000,0.00000,0.00000,0.00000,0.00000,,0.01284329,,,
208,02/03/2022 12:08:15.948,3580.422,3580.422,1,1,0.00000,2.83714,0.00000,0.00000,0.00000,0.00000,0.00000,,0.01112904,,,
211,02/03/2022 12:09:01.506,3625.980,3625.980,1,1,0.00000,2.86281,0.00000,0.00000,0.00000,0.00000,0.00000,,0.01387596,,,
214,02/03/2022 12:09:59.201,3683.675,3683.675,1,1,0.00000,2.88727,0.00000,0.00000,0.00000,0.00000,0.00000,,0.00763841,,,
217,02/03/2022 12:10:54.301,3738.775,3738.775,1,1,0.00000,2.90671,0.00000,0.00000,0.00000,0.00000,0.00000,,0.0003432474,,,
220,02/03/2022 12:11:40.289,3784.763,3784.763,1,1,0.00000,2.93222,0.00000,0.00000,0.00000,0.00000,0.00000,,-0.0273107,,,
223,02/03/2022 12:12:39.882,3844.356,3844.356,1,1,0.00000,2.95760,0.00000,0.00000,0.00000,0.00000,0.00000,,-0.03239938,,,
226,02/03/2022 12:13:37.903,3902.377,3902.377,1,1,0.00000,2.98057,0.00000,0.00000,0.00000,0.00000,0.00000,,0.003881622,,,
229,02/03/2022 12:14:31.279,3955.753,3955.753,1,1,0.00000,3.00612,0.00000,0.00000,0.00000,0.00000,0.00000,,-0.02486141,,,
232,02/03/2022 12:15:23.873,4008.347,4008.347,1,1,0.00000,3.02450,0.00000,0.00000,0.00000,0.00000,0.00000,,-0.03268697,,0,
235,02/03/2022 12:16:10.214,4054.688,4054.688,1,1,0.00000,3.04943,0.00000,0.00000,0.00000,0.00000,0.00000,,-0.03894021,,,
238,02/03/2022 12:16:59.932,4104.406,4104.406,1,1,0.00000,3.07124,0.00000,0.00000,0.00000,0.00000,0.00000,,0.0002333997,,,
241,02/03/2022 12:17:52.871,4157.345,4157.345,1,1,0.00000,3.09170,0.00000,0.00000,0.00000,0.00000,0.00000,,0.0003195243,,,
244,02/03/2022 12:18:45.485,4209.960,4209.960,1,1,0.00000,3.11662,0.00000,0.00000,0.00000,0.00000,0.00000,,-0.02095169,,,
247,02/03/2022 12:19:41.473,4265.948,4265.948,1,1,0.00000,3.13636,0.00000,0.00000,0.00000,0.00000,0.00000,,0.0003488267,,,
250,02/03/2022 12:20:34.795,4319.269,4319.269,1,1,0.00000,3.16093,0.00000,0.00000,0.00000,0.00000,0.00000,,0.0004029535,,,
253,02/03/2022 12:21:23.054,4367.528,4367.528,1,1,0.00000,3.18635,0.00000,0.00000,0.00000,0.00000,0.00000,,0.01862331,,0,
256,02/03/2022 12:22:20.002,4424.476,4424.476,1,1,0.00000,3.20654,0.00000,0.00000,0.00000,0.00000,0.00000,,-0.01720205,,,
259,02/03/2022 12:23:08.485,4472.959,4472.959,1,1,0.00000,3.23208,0.00000,0.00000,0.00000,0.00000,0.00000,,-0.01813441,,,
262,02/03/2022 12:23:57.174,4521.648,4521.648,1,1,0.00000,3.24825,0.00000,0.00000,0.00000,0.00000,0.00000,,-0.03868075,,,
265,02/03/2022 12:24:47.223,4571.698,4571.698,1,1,0.00000,3.27428,0.00000,0.00000,0.00000,0.00000,0.00000,,-0.02632971,,,
268,02/03/2022 12:25:39.240,4623.714,4623.714,1,1,0.00000,3.29312,0.00000,0.00000,0.00000,0.00000,0.00000,,0.01717849,,,
271,02/03/2022 12:26:25.951,4670.425,4670.425,1,1,0.00000,3.31699,0.00000,0.00000,0.00000,0.00000,0.00000,,0.01228842,,,
274,02/03/2022 12:27:19.296,4723.770,4723.770,1,1,0.00000,3.33644,0.00000,0.00000,0.00000,0.00000,0.00000,,0.01044884,,0,
277,02/03/2022 12:28:10.000,4774.474,4774.474,1,1,0.00000,3.36057,0.00000,0.00000,0.00000,0.00000,0.00000,,-0.02291639,,,
280,02/03/2022 12:29:06.573,4831.047,4831.047,1,1,0.00000,3.37973,0.00000,0.00000,0.00000,0.00000,0.00000,,-0.0143508,,,
283,02/03/2022 12:29:55.168,4879.642,4879.642,1,1,0.00000,3.40479,0.00000,0.00000,0.00000,0.00000,0.00000,,-0.02771277,,,
286,02/03/2022 12:30:52.941,4937.415,4937.415,1,1,0.00000,3.42355,0.00000,0.00000,0.00000,0.00000,0.00000,,0.02378135,,,
289,02/03/2022 12:31:35.889,4980.364,4980.364,1,1,0.00000,3.44765,0.00000,0.00000,0.00000,0.00000,0.00000,,0.01280551,,,
292,02/03/2022 12:32:21.543,5026.017,5026.017,1,1,0.00000,3.45996,0.00000,0.00000,0.00000,0.00000,0.00000,,-0.01174886,,,
295,02/03/2022 12:33:06.396,5070.870,5070.870,1,1,0.00000,3.48590,0.00000,0.00000,0.00000,0.00000,0.00000,,0.03083249,,,
298,02/03/2022 12:34:03.021,5127.495,5127.495,1,1,0.00000,3.50935,0.00000,0.00000,0.00000,0.00000,0.00000,,-0.02388777,,,
301,02/03/2022 12:34:55.481,5179.955,5179.955,1,1,0.00000,3.52867,0.00000,0.00000,0.00000,0.00000,0.00000,,-0.01908123,,,
304,02/03/2022 12:35:45.525,5229.999,5229.999,1,1,0.00000,3.55314,0.00000,0.00000,0.00000,0.00000,0.00000,,-0.02115827,,,
307,02/03/2022 12:36:40.275,5284.749,5284.749,1,1,0.00000,3.57199,0.00000,0.00000,0.00000,0.00000,0.00000,,0.0130449,,,
310,02/03/2022 12:37:29.075,5333.549,5333.549,1,1,0.00000,3.59652,0.00000,0.00000,0.00000,0.00000,0.00000,,0.008385524,,0,
313,02/03/2022 12:38:21.310,5385.784,5385.784,1,1,0.00000,3.61124,0.00000,0.00000,0.00000,0.00000,0.00000,,-0.01855507,,,
316,02/03/2022 12:39:02.001,5426.475,5426.475,1,1,0.00000,3.63591,0.00000,0.00000,0.00000,0.00000,0.00000,,0.01305884,,,
319,02/03/2022 12:39:48.573,5473.047,5473.047,1,1,0.00000,3.65464,0.00000,0.00000,0.00000,0.00000,0.00000,,0.0169969,,,
322,02/03/2022 12:40:42.737,5527.211,5527.211,1,1,0.00000,3.67403,0.00000,0.00000,0.00000,0.00000,0.00000,,0.01553651,,,
325,02/03/2022 12:41:26.565,5571.039,5571.039,1,1,0.00000,3.69730,0.00000,0.00000,0.00000,0.00000,0.00000,,0.000221679,,0,
328,02/03/2022 12:42:22.652,5627.127,5627.127,1,1,0.00000,3.71967,0.00000,0.00000,0.00000,0.00000,0.00000,,0.02072703,,,
331,02/03/2022 12:43:11.054,5675.528,5675.528,1,1,0.00000,3.73590,0.00000,0.00000,0.00000,0.00000,0.00000,,-0.02566413,,,
334,02/03/2022 12:44:01.154,5725.628,5725.628,1,1,0.00000,3.76195,0.00000,0.00000,0.00000,0.00000,0.00000,,0.02428642,,,
337,02/03/2022 12:44:51.341,5775.816,5775.816,1,1,0.00000,3.78374,0.00000,0.00000,0.00000,0.00000,0.00000,,0.0006776432,,,
340,02/03/2022 12:45:45.655,5830.129,5830.129,1,1,0.00000,3.80522,0.00000,0.00000,0.00000,0.00000,0.00000,,-0.02782292,,,
343,02/03/2022 12:46:36.715,5881.189,5881.189,1,1,0.00000,3.81997,0.00000,0.00000,0.00000,0.00000,0.00000,,-0.01022155,,,
346,02/03/2022 12:47:15.513,5919.988,5919.988,1,1,0.00000,3.84341,0.00000,0.00000,0.00000,0.00000,0.00000,,0.0173678,,,
349,02/03/2022 12:48:12.604,5977.078,5977.078,1,1,0.00000,3.86215,0.00000,0.00000,0.00000,0.00000,0.00000,,-0.02051903,,,
352,02/03/2022 12:49:00.603,6025.077,6025.077,1,1,0.00000,3.88629,0.00000,0.00000,0.00000,0.00000,0.00000,,0.03421601,,,
355,02/03/2022 12:49:55.145,6079.619,6079.619,1,1,0.00000,3.90251,0.00000,0.00000,0.00000,0.00000,0.00000,,-0.01941925,,,
358,02/03/2022 12:50:38.744,6123.218,6123.218,1,1,0.00000,3.92807,0.00000,0.00000,0.00000,0.00000,0.00000,,-0.03921559,,,
361,02/03/2022 12:51:38.746,6183.220,6183.220,1,1,0.00000,3.94972,0.00000,0.00000,0.00000,0.00000,0.00000,,0.01225711,,0,
364,02/03/2022 12:52:27.948,6232.422,6232.422,1,1,0.00000,3.97321,0.00000,0.00000,0.00000,0.00000,0.00000,,-0.01120567,,,
367,02/03/2022 12:53:21.600,6286.074,6286.074,1,1,0.00000,3.99265,0.00000,0.00000,0.00000,0.00000,0.00000,,0.0119485,,,
370,02/03/2022 12:54:11.330,6335.804,6335.804,1,1,0.00000,4.01629,0.00000,0.00000,0.00000,0.00000,0.00000,,0.01485196,,,
373,02/03/2022 12:55:03.347,6387.821,6387.821,1,1,0.00000,4.02837,0.00000,0.00000,0.00000,0.00000,0.00000,,0.0003256713,,,
376,02/03/2022 12:55:49.347,6433.821,6433.821,1,1,0.00000,4.05077,0.00000,0.00000,0.00000,0.00000,0.00000,,-0.0297662,,,
379,02/03/2022 12:56:42.244,6486.718,6486.718,1,1,0.00000,4.07621,0.00000,0.00000,0.00000,0.00000,0.00000,,0.01738469,,,
382,02/03/2022 12:57:40.044,6544.518,6544.518,1,1,0.00000,4.09367,0.00000,0.00000,0.00000,0.00000,0.00000,,-0.01652286,,0,
385,02/03/2022 12:58:23.811,6588.285,6588.285,1,1,0.00000,4.11732,0.00000,0.00000,0.00000,0.00000,0.00000,,-0.02601108,,,
388,02/03/2022 12:59:14.237,6638.711,6638.711,1,1,0.00000,4.13639,0.00000,0.00000,0.00000,0.00000,0.00000,,0.01775975,,,
391,02/03/2022 13:00:07.734,6692.208,6692.208,1,1,0.00000,4.15950,0.00000,0.00000,0.00000,0.00000,0.00000,,-0.03217681,,,
394,02/03/2022 13:01:04.480,6748.954,6748.954,1,1,0.00000,4.18181,0.00000,0.00000,0.00000,0.00000,0.00000,,-0.01926885,,,
397,02/03/2022 13:02:02.791,6807.265,6807.265,1,1,0.00000,4.20458,0.00000,0.00000,0.00000,0.00000,0.00000,,0.0008375004,,,
400,02/03/2022 13:03:01.884,6866.358,6866.358,1,1,0.00000,4.22459,0.00000,0.00000,0.00000,0.00000,0.00000,,-0.01107339,,,
403,02/03/2022 13:03:53.405,6917.880,6917.880,1,1,0.00000,4.25022,0.00000,0.00000,0.00000,0.00000,0.00000,,-0.02371694,,,
406,02/03/2022 13:04:47.022,6971.496,6971.496,1,1,0.00000,4.26355,0.00000,0.00000,0.00000,0.00000,0.00000,,-0.01406286,,,
409,02/03/2022 13:05:31.181,7015.655,7015.655,1,1,0.00000,4.28907,0.00000,0.00000,0.00000,0.00000,0.00000,,-0.02700758,,,
412,02/03/2022 13:06:29.369,7073.843,7073.843,1,1,0.00000,4.31101,0.00000,0.00000,0.00000,0.00000,0.00000,,-0.01048429,,,
415,02/03/2022 13:07:28.885,7133.360,7133.360,1,1,0.00000,4.33494,0.00000,0.00000,0.00000,0.00000,0.00000,,0.0200582,,,
418,02/03/2022 13:08:23.530,7188.004,7188.004,1,1,0.00000,4.35650,0.00000,0.00000,0.00000,0.00000,0.00000,,0.02344449,,,
421,02/03/2022 13:09:09.424,7233.898,7233.898,1,1,0.00000,4.37771,0.00000,0.00000,0.00000,0.00000,0.00000,,0.0134803,,,
424,02/03/2022 13:10:07.080,7291.554,7291.554,1,1,0.00000,4.39620,0.00000,0.00000,0.00000,0.00000,0.00000,,-0.01616435,,,
427,02/03/2022 13:10:57.185,7341.659,7341.659,1,1,0.00000,4.42034,0.00000,0.00000,0.00000,0.00000,0.00000,,0.0001531788,,,
430,02/03/2022 13:11:56.774,7401.248,7401.248,1,1,0.00000,4.44086,0.00000,0.00000,0.00000,0.00000,0.00000,,0.0006484847,,,
433,02/03/2022 13:12:53.032,7457.507,7457.507,1,1,0.00000,4.46194,0.00000,0.00000,0.00000,0.00000,0.00000,,0.01793296,,,
436,02/03/2022 13:13:43.775,7508.249,7508.249,1,1,0.00000,4.48668,0.00000,0.00000,0.00000,0.00000,0.00000,,0.00995475,,0,
439,02/03/2022 13:14:29.071,7553.545,7553.545,1,1,0.00000,4.50037,0.00000,0.00000,0.00000,0.00000,0.00000,,0.02175445,,,
442,02/03/2022 13:15:17.971,7602.445,7602.445,1,1,0.00000,4.52398,0.00000,0.00000,0.00000,0.00000,0.00000,,0.03195578,,,
445,02/03/2022 13:16:05.871,7650.345,7650.345,1,1,0.00000,4.54250,0.00000,0.00000,0.00000,0.00000,0.00000,,-0.01588112,,,
448,02/03/2022 13:17:05.455,7709.929,7709.929,1,1,0.00000,4.56504,0.00000,0.00000,0.00000,0.00000,0.00000,,0.02169864,,,
451,02/03/2022 13:18:00.105,7764.580,7764.580,1,1,0.00000,4.58389,0.00000,0.00000,0.00000,0.00000,0.00000,,-0.01278105,,,
454,02/03/2022 13:18:55.918,7820.392,7820.392,1,1,0.00000,4.60718,0.00000,0.00000,0.00000,0.00000,0.00000,,0.01367316,,,
457,02/03/2022 13:19:40.242,7864.716,7864.716,1,1,0.00000,4.62791,0.00000,0.00000,0.00000,0.00000,0.00000,,-0.02676738,,0,
460,02/03/2022 13:20:37.752,7922.226,7922.226,1,1,0.00000,4.64642,0.00000,0.00000,0.00000,0.00000,0.00000,,0.0165322,,,
463,02/03/2022 13:21:31.828,7976.302,7976.302,1,1,0.00000,4.67210,0.00000,0.00000,0.00000,0.00000,0.00000,,-0.01398263,,,
466,02/03/2022 13:22:24.217,8028.692,8028.692,1,1,0.00000,4.68524,0.00000,0.00000,0.00000,0.00000,0.00000,,0.01660494,,,
469,02/03/2022 13:23:05.538,8070.012,8070.012,1,1,0.00000,4.70858,0.00000,0.00000,0.00000,0.00000,0.00000,,0.000895023,,,
472,02/03/2022 13:24:01.619,8126.093,8126.093,1,1,0.00000,4.72733,0.00000,0.00000,0.00000,0.00000,0.00000,,-0.03798504,,0,
475,02/03/2022 13:24:58.237,8182.712,8182.712,1,1,0.00000,4.75192,0.00000,0.00000,0.00000,0.00000,0.00000,,-0.02529475,,,
478,02/03/2022 13:25:45.409,8229.883,8229.883,1,1,0.00000,4.76604,0.00000,0.00000,0.00000,0.00000,0.00000,,-0.02995333,,0,
481,02/03/2022 13:26:31.634,8276.108,8276.108,1,1,0.00000,4.78650,0.00000,0.00000,0.00000,0.00000,0.00000,,0.004796121,,,
484,02/03/2022 13:27:23.101,8327.575,8327.575,1,1,0.00000,4.80037,0.00000,0.00000,0.00000,0.00000,0.00000,,-0.01442813,,,
487,02/03/2022 13:28:15.482,8379.956,8379.956,1,1,0.00000,4.82105,0.00000,0.00000,0.00000,0.00000,0.00000,,-0.02751296,,,
490,02/03/2022 13:29:09.095,8433.569,8433.569,1,1,0.00000,4.84529,0.00000,0.00000,0.00000,0.00000,0.00000,,0.01599045,,,
493,02/03/2022 13:30:07.490,8491.964,8491.964,1,1,0.00000,4.86094,0.00000,0.00000,0.00000,0.00000,0.00000,,-0.01954488,,,
496,02/03/2022 13:30:56.208,8540.682,8540.682,1,1,0.00000,4.88461,0.00000,0.00000,0.00000,0.00000,0.00000,,-0.02509869,,,
499,02/03/2022 13:31:48.917,8593.392,8593.392,1,1,0.00000,4.89929,0.00000,0.00000,0.00000,0.00000,0.00000,,-0.01668125,,0,
502,02/03/2022 13:32:37.904,8642.378,8642.378,1,1,0.00000,4.92269,0.00000,0.00000,0.00000,0.00000,0.00000,,0.01284811,,,
505,02/03/2022 13:33:37.332,8701.807,8701.807,1,1,0.00000,4.93926,0.00000,0.00000,0.00000,0.00000,0.00000,,0.01583921,,,
508,02/03/2022 13:34:28.033,8752.507,8752.507,1,1,0.00000,4.96183,0.00000,0.00000,0.00000,0.00000,0.00000,,-0.01561033,,,
511,02/03/2022 13:35:25.922,8810.396,8810.396,1,1,0.00000,4.97937,0.00000,0.00000,0.00000,0.00000,0.00000,,0.01660304,,,
514,02/03/2022 13:36:16.006,8860.480,8860.480,1,1,0.00000,5.00418,0.00000,0.00000,0.00000,0.00000,0.00000,,0.004440709,,,
517,02/03/2022 13:37:12.289,8916.763,8916.763,1,1,0.00000,5.02158,0.00000,0.00000,0.00000,0.00000,0.00000,,0.0001767845,,,
520,02/03/2022 13:38:08.817,8973.292,8973.292,1,1,0.00000,5.04538,0.00000,0.00000,0.00000,0.00000,0.00000,,0.0002910288,,,
523,02/03/2022 13:39:07.844,9032.319,9032.319,1,1,0.00000,5.06557,0.00000,0.00000,0.00000,0.00000,0.00000,,-0.01906322,,,
526,02/03/2022 13:40:06.434,9090.908,9090.908,1,1,0.00000,5.08963,0.00000,0.00000,0.00000,0.00000,0.00000,,0.01235599,,0,
529,02/03/2022 13:41:06.437,9150.911,9150.911,1,1,0.00000,5.11043,0.00000,0.00000,0.00000,0.00000,0.00000,,0.0145025,,,
532,02/03/2022 13:42:05.056,9209.531,9209.531,1,1,0.00000,5.12830,0.00000,0.00000,0.00000,0.00000,0.00000,,0.0004362438,,0,
535,02/03/2022 13:42:59.700,9264.174,9264.174,1,1,0.00000,5.14910,0.00000,0.00000,0.00000,0.00000,0.00000,,0.01236258,,,
538,02/03/2022 13:43:57.189,9321.664,9321.664,1,1,0.00000,5.16830,0.00000,0.00000,0.00000,0.00000,0.00000,,-0.01826792,,0,
541,02/03/2022 13:44:47.807,9372.281,9372.281,1,1,0.00000,5.19136,0.00000,0.00000,0.00000,0.00000,0.00000,,-0.01036476,,,
544,02/03/2022 13:45:47.116,9431.590,9431.590,1,1,0.00000,5.21347,0.00000,0.00000,0.00000,0.00000,0.00000,,0.01662722,,,
547,02/03/2022 13:46:35.462,9479.936,9479.936,1,1,0.00000,5.23159,0.00000,0.00000,0.00000,0.00000,0.00000,,0.0002343012,,,
550,02/03/2022 13:47:32.029,9536.503,9536.503,1,1,0.00000,5.24739,0.00000,0.00000,0.00000,0.00000,0.00000,,-0.01877312,,,
553,02/03/2022 13:48:24.761,9589.235,9589.235,1,1,0.00000,5.27119,0.00000,0.00000,0.00000,0.00000,0.00000,,0.0004574724,,,
556,02/03/2022 13:49:17.029,9641.503,9641.503,1,1,0.00000,5.28458,0.00000,0.00000,0.00000,0.00000,0.00000,,0.005137041,,,
559,02/03/2022 13:50:10.798,9695.272,9695.272,1,1,0.00000,5.30261,0.00000,0.00000,0.00000,0.00000,0.00000,,-0.02386302,,0,
562,02/03/2022 13:51:02.581,9747.056,9747.056,1,1,0.00000,5.32104,0.00000,0.00000,0.00000,0.00000,0.00000,,0.01456574,,,
565,02/03/2022 13:51:52.389,9796.863,9796.863,1,1,0.00000,5.34302,0.00000,0.00000,0.00000,0.00000,0.00000,,0.02083631,,,
568,02/03/2022 13:52:47.804,9852.279,9852.279,1,1,0.00000,5.36244,0.00000,0.00000,0.00000,0.00000,0.00000,,-0.01898571,,,
571,02/03/2022 13:53:47.190,9911.664,9911.664,1,1,0.00000,5.37885,0.00000,0.00000,0.00000,0.00000,0.00000,,0.01590951,,,
574,02/03/2022 13:54:42.935,9967.409,9967.409,1,1,0.00000,5.40160,0.00000,0.00000,0.00000,0.00000,0.00000,,0.01171322,,,
577,02/03/2022 13:55:40.198,10024.672,10024.672,1,1,0.00000,5.41634,0.00000,0.00000,0.00000,0.00000,0.00000,,-0.01054941,,,
580,02/03/2022 13:56:26.962,10071.436,10071.436,1,1,0.00000,5.43688,0.00000,0.00000,0.00000,0.00000,0.00000,,-0.02169186,,,
583,02/03/2022 13:57:20.360,10124.834,10124.834,1,1,0.00000,5.44916,0.00000,0.00000,0.00000,0.00000,0.00000,,-0.02357424,,,
586,02/03/2022 13:58:10.258,10174.732,10174.732,1,1,0.00000,5.47195,0.00000,0.00000,0.00000,0.00000,0.00000,,0.01839229,,0,
589,02/03/2022 13:59:09.173,10233.647,10233.647,1,1,0.00000,5.48620,0.00000,0.00000,0.00000,0.00000,0.00000,,0.01550757,,,
592,02/03/2022 14:00:01.525,10285.999,10285.999,1,1,0.00000,5.50969,0.00000,0.00000,0.00000,0.00000,0.00000,,0.0001421949,,0,
595,02/03/2022 14:00:55.615,10340.089,10340.089,1,1,0.00000,5.52827,0.00000,0.00000,0.00000,0.00000,0.00000,,0.02042217,,,
598,02/03/2022 14:01:54.088,10398.562,10398.562,1,1,0.00000,5.54072,0.00000,0.00000,0.00000,0.00000,0.00000,,-0.01405778,,,
601,02/03/2022 14:02:38.924,10443.398,10443.398,1,1,0.00000,5.56226,0.00000,0.00000,0.00000,0.00000,0.00000,,-0.02283322,,,
604,02/03/2022 14:03:35.628,10500.103,10500.103,1,1,0.00000,5.57756,0.00000,0.00000,0.00000,0.00000,0.00000,,0.01357807,,,
607,02/03/2022 14:04:34.345,10558.820,10558.820,1,1,0.00000,5.59900,0.00000,0.00000,0.00000,0.00000,0.00000,,0.01169902,,,
610,02/03/2022 14:05:34.348,10618.822,10618.822,1,1,0.00000,5.61531,0.00000,0.00000,0.00000,0.00000,0.00000,,-0.0259051,,,
613,02/03/2022 14:06:27.400,10671.874,10671.874,1,1,0.00000,5.63737,0.00000,0.00000,0.00000,0.00000,0.00000,,0.00163409,,,
616,02/03/2022 14:07:22.024,10726.498,10726.498,1,1,0.00000,5.65143,0.00000,0.00000,0.00000,0.00000,0.00000,,-0.01608043,,,
619,02/03/2022 14:08:20.734,10785.208,10785.208,1,1,0.00000,5.67058,0.00000,0.00000,0.00000,0.00000,0.00000,,0.01604942,,0,
622,02/03/2022 14:09:20.292,10844.767,10844.767,1,1,0.00000,5.68797,0.00000,0.00000,0.00000,0.00000,0.00000,,0.01549994,,,
625,02/03/2022 14:10:11.882,10896.356,10896.356,1,1,0.00000,5.70449,0.00000,0.00000,0.00000,0.00000,0.00000,,-0.02478299,,0,
628,02/03/2022 14:11:02.135,10946.609,10946.609,1,1,0.00000,5.72491,0.00000,0.00000,0.00000,0.00000,0.00000,,-0.01765125,,,
631,02/03/2022 14:12:00.515,11004.989,11004.989,1,1,0.00000,5.74574,0.00000,0.00000,0.00000,0.00000,0.00000,,0.01885697,,,
634,02/03/2022 14:12:55.975,11060.449,11060.449,1,1,0.00000,5.76059,0.00000,0.00000,0.00000,0.00000,0.00000,,-0.02392955,,,
637,02/03/2022 14:13:54.429,11118.904,11118.904,1,1,0.00000,5.78332,0.00000,0.00000,0.00000,0.00000,0.00000,,0.01572491,,,
640,02/03/2022 14:14:51.566,11176.040,11176.040,1,1,0.00000,5.80041,0.00000,0.00000,0.00000,0.00000,0.00000,,-0.03812143,,,
643,02/03/2022 14:15:44.688,11229.162,11229.162,1,1,0.00000,5.82008,0.00000,0.00000,0.00000,0.00000,0.00000,,0.01598304,,,
646,02/03/2022 14:16:44.690,11289.164,11289.164,1,1,0.00000,5.83562,0.00000,0.00000,0.00000,0.00000,0.00000,,0.0004506896,,,
649,02/03/2022 14:17:43.445,11347.919,11347.919,1,1,0.00000,5.85377,0.00000,0.00000,0.00000,0.00000,0.00000,,0.0002181994,,,
652,02/03/2022 14:18:42.460,11406.934,11406.934,1,1,0.00000,5.87533,0.00000,0.00000,0.00000,0.00000,0.00000,,-0.01702517,,,
655,02/03/2022 14:19:35.138,11459.612,11459.612,1,1,0.00000,5.89150,0.00000,0.00000,0.00000,0.00000,0.00000,,0.0140313,,,
658,02/03/2022 14:20:33.674,11518.148,11518.148,1,1,0.00000,5.90650,0.00000,0.00000,0.00000,0.00000,0.00000,,0.01821647,,,
661,02/03/2022 14:21:23.993,11568.467,11568.467,1,1,0.00000,5.92533,0.00000,0.00000,0.00000,0.00000,0.00000,,-0.01564131,,,
664,02/03/2022 14:22:17.942,11622.416,11622.416,1,1,0.00000,5.94256,0.00000,0.00000,0.00000,0.00000,0.00000,,0.01096308,,0,
667,02/03/2022 14:23:17.945,11682.419,11682.419,1,1,0.00000,5.95786,0.00000,0.00000,0.00000,0.00000,0.00000,,0.00019316,,,
670,02/03/2022 14:24:17.949,11742.423,11742.423,1,1,0.00000,5.97741,0.00000,0.00000,0.00000,0.00000,0.00000,,0.01850986,,0,
673,02/03/2022 14:25:17.951,11802.425,11802.425,1,1,0.00000,5.99788,0.00000,0.00000,0.00000,0.00000,0.00000,,-0.02440141,,,
676,02/03/2022 14:26:17.954,11862.428,11862.428,1,1,0.00000,6.01460,0.00000,0.00000,0.00000,0.00000,0.00000,,0.02375051,,0,
679,02/03/2022 14:27:14.297,11918.771,11918.771,1,1,0.00000,6.03186,0.00000,0.00000,0.00000,0.00000,0.00000,,-0.009997333,,,
682,02/03/2022 14:28:14.300,11978.774,11978.774,1,1,0.00000,6.04666,0.00000,0.00000,0.00000,0.00000,0.00000,,-0.02595094,,0,
685,02/03/2022 14:29:06.223,12030.697,12030.697,1,1,0.00000,6.06839,0.00000,0.00000,0.00000,0.00000,0.00000,,0.0005831465,,,
688,02/03/2022 14:30:05.456,12089.930,12089.930,1,1,0.00000,6.08310,0.00000,0.00000,0.00000,0.00000,0.00000,,-0.02340089,,,
691,02/03/2022 14:31:03.160,12147.635,12147.635,1,1,0.00000,6.10593,0.00000,0.00000,0.00000,0.00000,0.00000,,-0.02363081,,,
694,02/03/2022 14:31:58.123,12202.597,12202.597,1,1,0.00000,6.11640,0.00000,0.00000,0.00000,0.00000,0.00000,,-0.01941943,,,
697,02/03/2022 14:32:48.911,12253.385,12253.385,1,1,0.00000,6.13990,0.00000,0.00000,0.00000,0.00000,0.00000,,-0.03098153,,,
700,02/03/2022 14:33:45.771,12310.245,12310.245,1,1,0.00000,6.15084,0.00000,0.00000,0.00000,0.00000,0.00000,,-0.01477302,,,
703,02/03/2022 14:34:38.873,12363.348,12363.348,1,1,0.00000,6.16635,0.00000,0.00000,0.00000,0.00000,0.00000,,0.01599799,,,
706,02/03/2022 14:35:26.176,12410.651,12410.651,1,1,0.00000,6.18814,0.00000,0.00000,0.00000,0.00000,0.00000,,-0.01642567,,,
709,02/03/2022 14:36:25.332,12469.806,12469.806,1,1,0.00000,6.20303,0.00000,0.00000,0.00000,0.00000,0.00000,,0.01316886,,0,
712,02/03/2022 14:37:21.860,12526.335,12526.335,1,1,0.00000,6.22335,0.00000,0.00000,0.00000,0.00000,0.00000,,-0.02385715,,,
715,02/03/2022 14:38:20.361,12584.835,12584.835,1,1,0.00000,6.23951,0.00000,0.00000,0.00000,0.00000,0.00000,,0.0005339039,,0,
718,02/03/2022 14:39:19.576,12644.051,12644.051,1,1,0.00000,6.25600,0.00000,0.00000,0.00000,0.00000,0.00000,,0.0107921,,,
721,02/03/2022 14:40:14.274,12698.748,12698.748,1,1,0.00000,6.27427,0.00000,0.00000,0.00000,0.00000,0.00000,,-0.02606884,,,
724,02/03/2022 14:41:12.333,12756.807,12756.807,1,1,0.00000,6.28646,0.00000,0.00000,0.00000,0.00000,0.00000,,0.01414292,,,
727,02/03/2022 14:42:07.837,12812.311,12812.311,1,1,0.00000,6.30616,0.00000,0.00000,0.00000,0.00000,0.00000,,-0.03256902,,,
730,02/03/2022 14:43:07.156,12871.630,12871.630,1,1,0.00000,6.32285,0.00000,0.00000,0.00000,0.00000,0.00000,,0.0001632475,,,
733,02/03/2022 14:44:07.158,12931.632,12931.632,1,1,0.00000,6.33927,0.00000,0.00000,0.00000,0.00000,0.00000,,0.01864273,,,
736,02/03/2022 14:45:00.818,12985.292,12985.292,1,1,0.00000,6.35154,0.00000,0.00000,0.00000,0.00000,0.00000,,-0.02610264,,,
739,02/03/2022 14:45:53.292,13037.767,13037.767,1,1,0.00000,6.37084,0.00000,0.00000,0.00000,0.00000,0.00000,,-0.01533564,,,
742,02/03/2022 14:46:39.983,13084.457,13084.457,1,1,0.00000,6.37957,0.00000,0.00000,0.00000,0.00000,0.00000,,-0.01744607,,0,
745,02/03/2022 14:47:39.260,13143.735,13143.735,1,1,0.00000,6.39951,0.00000,0.00000,0.00000,0.00000,0.00000,,0.02357745,,,
748,02/03/2022 14:48:32.225,13196.699,13196.699,1,1,0.00000,6.41376,0.00000,0.00000,0.00000,0.00000,0.00000,,0.0002386366,,0,
751,02/03/2022 14:49:31.531,13256.005,13256.005,1,1,0.00000,6.42968,0.00000,0.00000,0.00000,0.00000,0.00000,,0.01455236,,,
754,02/03/2022 14:50:21.389,13305.863,13305.863,1,1,0.00000,6.43749,0.00000,0.00000,0.00000,0.00000,0.00000,,0.000133393,,,
757,02/03/2022 14:51:18.066,13362.540,13362.540,1,1,0.00000,6.45412,0.00000,0.00000,0.00000,0.00000,0.00000,,0.01184092,,,
760,02/03/2022 14:52:13.856,13418.330,13418.330,1,1,0.00000,6.46774,0.00000,0.00000,0.00000,0.00000,0.00000,,0.01189342,,,
763,02/03/2022 14:53:13.251,13477.725,13477.725,1,1,0.00000,6.48418,0.00000,0.00000,0.00000,0.00000,0.00000,,0.01406994,,,
766,02/03/2022 14:54:06.075,13530.549,13530.549,1,1,0.00000,6.50239,0.00000,0.00000,0.00000,0.00000,0.00000,,0.0002297823,,,
769,02/03/2022 14:55:01.387,13585.861,13585.861,1,1,0.00000,6.51768,0.00000,0.00000,0.00000,0.00000,0.00000,,-0.02075226,,,
772,02/03/2022 14:55:52.631,13637.105,13637.105,1,1,0.00000,6.52781,0.00000,0.00000,0.00000,0.00000,0.00000,,0.01071327,,,
775,02/03/2022 14:56:47.836,13692.311,13692.311,1,1,0.00000,6.54670,0.00000,0.00000,0.00000,0.00000,0.00000,,-0.01504328,,,
778,02/03/2022 14:57:47.838,13752.312,13752.312,1,1,0.00000,6.56061,0.00000,0.00000,0.00000,0.00000,0.00000,,0.01345362,,,
781,02/03/2022 14:58:47.839,13812.313,13812.313,1,1,0.00000,6.57238,0.00000,0.00000,0.00000,0.00000,0.00000,,-0.02596909,,0,
784,02/03/2022 14:59:47.840,13872.315,13872.315,1,1,0.00000,6.58697,0.00000,0.00000,0.00000,0.00000,0.00000,,0.01378677,,,
787,02/03/2022 15:00:46.696,13931.170,13931.170,1,1,0.00000,6.60583,0.00000,0.00000,0.00000,0.00000,0.00000,,0.03044252,,0,
790,02/03/2022 15:01:46.699,13991.173,13991.173,1,1,0.00000,6.61578,0.00000,0.00000,0.00000,0.00000,0.00000,,0.02378712,,,
793,02/03/2022 15:02:46.701,14051.175,14051.175,1,1,0.00000,6.63366,0.00000,0.00000,0.00000,0.00000,0.00000,,0.0002176308,,0,
796,02/03/2022 15:03:46.703,14111.177,14111.177,1,1,0.00000,6.64423,0.00000,0.00000,0.00000,0.00000,0.00000,,-0.011803,,,
799,02/03/2022 15:04:46.706,14171.180,14171.180,1,1,0.00000,6.66163,0.00000,0.00000,0.00000,0.00000,0.00000,,0.01777369,,0,
802,02/03/2022 15:05:46.710,14231.184,14231.184,1,1,0.00000,6.67157,0.00000,0.00000,0.00000,0.00000,0.00000,,0.0004189047,,,
805,02/03/2022 15:06:41.005,14285.479,14285.479,1,1,0.00000,6.68885,0.00000,0.00000,0.00000,0.00000,0.00000,,0.0211041,,0,
808,02/03/2022 15:07:37.040,14341.515,14341.515,1,1,0.00000,6.70128,0.00000,0.00000,0.00000,0.00000,0.00000,,0.01140448,,,
811,02/03/2022 15:08:35.429,14399.903,14399.903,1,1,0.00000,6.71251,0.00000,0.00000,0.00000,0.00000,0.00000,,0.01436413,,0,
814,02/03/2022 15:08:35.616,14400.090,0.008,1,2,0.00000,6.88468,0.00000,0.00000,0.00000,0.00000,0.00000,,,,,
817,02/03/2022 15:08:35.739,14400.213,0.008,1,3,0.00000,-7.39770,0.00000,0.00000,0.00000,0.00000,0.00000,,-110.0066,,,
820,02/03/2022 15:08:35.845,14400.319,0.113,1,3,0.00000,-7.36214,0.00000,0.00000,0.00000,0.00000,0.00000,,,,,
822,02/03/2022 15:08:35.856,14400.330,0.124,1,3,0.00000,-7.34459,0.00000,0.00000,0.00000,0.00000,0.00000,,0.337108,0,0,0