File: Data/XRD/NMC_3_GM_4tt35tt_05ts_6ks_exported.xye
'Id: "" Comment: "" Operator: "Lab Manager" Anode: "Mo" Scantype: "Coupled TwoTheta/Theta" TimePerStep: "1536" X: "9999" Y: "9999" Z: "9999"
4.0000 110.371 0.268
4.0204 110.904 0.269
4.0408 109.501 0.267
4.0612 111.564 0.270
4.0817 112.337 0.270
4.1021 111.796 0.270
4.1225 113.810 0.272
4.1429 113.980 0.272
4.1633 113.949 0.272
4.1837 115.023 0.274
4.2041 115.868 0.275
4.2246 115.877 0.275
4.2450 116.895 0.276
4.2654 118.133 0.277
4.2858 117.491 0.277
4.3062 119.026 0.278
4.3266 120.141 0.280
4.3471 120.077 0.280
4.3675 121.396 0.281
4.3879 122.611 0.283
4.4083 122.932 0.283
4.4287 123.482 0.284
4.4491 124.943 0.285
4.4695 125.491 0.286
4.4900 126.033 0.286
4.5104 127.962 0.289
4.5308 128.879 0.290
4.5512 128.912 0.290
4.5716 130.662 0.292
4.5920 131.939 0.293
4.6124 131.913 0.293
4.6329 133.915 0.295
4.6533 134.154 0.296
4.6737 134.301 0.296
4.6941 136.732 0.298
4.7145 137.387 0.299
4.7349 137.037 0.299
4.7553 140.724 0.303
4.7758 140.296 0.302
4.7962 141.033 0.303
4.8166 143.805 0.306
4.8370 144.729 0.307
4.8574 144.225 0.306
4.8778 147.155 0.310
4.8983 148.282 0.311
4.9187 147.544 0.310
4.9391 150.740 0.313
4.9595 151.409 0.314
4.9799 151.521 0.314
5.0003 154.719 0.317
5.0207 155.234 0.318
5.0412 155.134 0.318
5.0616 157.865 0.321
5.0820 158.424 0.321
5.1024 157.670 0.320
5.1228 161.530 0.324
5.1432 162.344 0.325
5.1636 161.704 0.324
5.1841 164.496 0.327
5.2045 165.243 0.328
5.2249 164.471 0.327
5.2453 167.519 0.330
5.2657 168.101 0.331
5.2861 167.327 0.330
5.3065 169.310 0.332
5.3270 170.777 0.333
5.3474 170.282 0.333
5.3678 172.189 0.335
5.3882 173.527 0.336
5.4086 172.551 0.335
5.4290 173.976 0.337
5.4495 175.249 0.338
5.4699 174.788 0.337
5.4903 175.583 0.338
5.5107 176.768 0.339
5.5311 176.092 0.339
5.5515 175.691 0.338
5.5719 178.432 0.341
5.5924 177.215 0.340
5.6128 176.611 0.339
5.6332 178.022 0.340
5.6536 178.105 0.341
5.6740 177.786 0.340
5.6944 179.133 0.342
5.7148 177.909 0.340
5.7353 177.893 0.340
5.7557 178.809 0.341
5.7761 177.462 0.340
5.7965 177.587 0.340
5.8169 178.290 0.341
5.8373 176.721 0.339
5.8577 175.706 0.338
5.8782 177.986 0.340
5.8986 176.654 0.339
5.9190 174.217 0.337
5.9394 175.756 0.338
5.9598 174.811 0.337
5.9802 172.745 0.335
6.0007 173.231 0.336
6.0211 172.602 0.335
6.0415 171.052 0.334
6.0619 171.952 0.335
6.0823 170.911 0.334
6.1027 168.578 0.331
6.1231 169.997 0.333
6.1436 168.734 0.331
6.1640 166.057 0.329
6.1844 167.559 0.330
6.2048 165.747 0.328
6.2252 162.680 0.325
6.2456 165.132 0.328
6.2660 162.879 0.326
6.2865 160.538 0.323
6.3069 162.296 0.325
6.3273 160.035 0.323
6.3477 157.665 0.320
6.3681 158.965 0.322
6.3885 157.404 0.320
6.4089 155.439 0.318
6.4294 155.074 0.318
6.4498 154.021 0.317
6.4702 152.511 0.315
6.4906 152.430 0.315
6.5110 151.556 0.314
6.5314 149.903 0.312
6.5519 149.442 0.312
6.5723 148.329 0.311
6.5927 147.079 0.309
6.6131 146.451 0.309
6.6335 145.227 0.307
6.6539 143.681 0.306
6.6743 143.628 0.306
6.6948 142.568 0.305
6.7152 141.145 0.303
6.7356 139.709 0.302
6.7560 138.997 0.301
6.7764 138.059 0.300
6.7968 136.395 0.298
6.8172 136.375 0.298
6.8377 134.898 0.296
6.8581 133.706 0.295
6.8785 133.189 0.294
6.8989 131.823 0.293
6.9193 130.655 0.292
6.9397 130.911 0.292
6.9601 128.886 0.290
6.9806 127.473 0.288
7.0010 128.306 0.289
7.0214 126.221 0.287
7.0418 124.673 0.285
7.0622 125.396 0.286
7.0826 123.639 0.284
7.1031 122.079 0.282
7.1235 122.194 0.282
7.1439 121.072 0.281
7.1643 119.047 0.278
7.1847 119.315 0.279
7.2051 118.155 0.277
7.2255 115.954 0.275
7.2460 116.956 0.276
7.2664 115.635 0.274
7.2868 113.818 0.272
7.3072 113.766 0.272
7.3276 113.141 0.271
7.3480 111.332 0.269
7.3684 111.144 0.269
7.3889 110.110 0.268
7.4093 108.617 0.266
7.4297 108.798 0.266
7.4501 107.674 0.265
7.4705 106.005 0.263
7.4909 106.023 0.263
7.5113 105.281 0.262
7.5318 103.777 0.260
7.5522 103.919 0.260
7.5726 103.371 0.259
7.5930 101.544 0.257
7.6134 100.917 0.256
7.6338 100.563 0.256
7.6543 99.389 0.254
7.6747 98.546 0.253
7.6951 98.441 0.253
7.7155 96.757 0.251
7.7359 96.540 0.251
7.7563 95.626 0.250
7.7767 95.066 0.249
7.7972 93.734 0.247
7.8176 93.335 0.247
7.8380 92.325 0.245
7.8584 91.212 0.244
7.8788 90.999 0.243
7.8992 89.558 0.241
7.9196 88.830 0.240
7.9401 89.035 0.241
7.9605 88.323 0.240
7.9809 86.865 0.238
8.0013 86.844 0.238
8.0217 85.849 0.236
8.0421 84.493 0.235
8.0625 84.408 0.234
8.0830 83.714 0.233
8.1034 82.301 0.231
8.1238 82.327 0.232
8.1442 81.195 0.230
8.1646 80.038 0.228
8.1850 80.989 0.230
8.2055 80.334 0.229
8.2259 79.661 0.228
8.2463 81.178 0.230
8.2667 81.037 0.230
8.2871 80.546 0.229
8.3075 82.001 0.231
8.3279 82.854 0.232
8.3484 83.510 0.233
8.3688 87.175 0.238
8.3892 91.260 0.244
8.4096 96.238 0.250
8.4300 107.743 0.265
8.4504 123.981 0.284
8.4708 143.042 0.305
8.4913 148.674 0.311
8.5117 123.921 0.284
8.5321 109.923 0.268
8.5525 96.443 0.251
8.5729 78.213 0.226
8.5933 70.952 0.215
8.6138 69.189 0.212
8.6342 67.309 0.209
8.6546 65.721 0.207
8.6750 65.046 0.206
8.6954 64.379 0.205
8.7158 63.523 0.203
8.7362 63.078 0.203
8.7567 62.059 0.201
8.7771 61.289 0.200
8.7975 60.933 0.199
8.8179 60.359 0.198
8.8383 59.835 0.197
8.8587 59.129 0.196
8.8791 59.049 0.196
8.8996 58.206 0.195
8.9200 58.068 0.194
8.9404 57.926 0.194
8.9608 56.827 0.192
8.9812 56.042 0.191
9.0016 56.286 0.191
9.0220 55.296 0.190
9.0425 54.780 0.189
9.0629 54.870 0.189
9.0833 54.337 0.188
9.1037 53.472 0.187
9.1241 53.614 0.187
9.1445 52.843 0.185
9.1650 52.338 0.185
9.1854 52.449 0.185
9.2058 51.820 0.184
9.2262 51.046 0.182
9.2466 51.107 0.182
9.2670 50.404 0.181
9.2874 50.170 0.181
9.3079 50.416 0.181
9.3283 49.812 0.180
9.3487 48.871 0.178
9.3691 49.086 0.179
9.3895 48.658 0.178
9.4099 48.010 0.177
9.4303 48.199 0.177
9.4508 47.860 0.177
9.4712 46.916 0.175
9.4916 47.565 0.176
9.5120 46.570 0.174
9.5324 45.779 0.173
9.5528 46.412 0.174
9.5732 45.896 0.173
9.5937 45.240 0.172
9.6141 45.615 0.172
9.6345 45.248 0.172
9.6549 44.415 0.170
9.6753 44.407 0.170
9.6957 43.960 0.169
9.7162 43.371 0.168
9.7366 43.734 0.169
9.7570 43.241 0.168
9.7774 42.950 0.167
9.7978 42.691 0.167
9.8182 42.289 0.166
9.8386 42.165 0.166
9.8591 41.737 0.165
9.8795 41.936 0.165
9.8999 41.454 0.164
9.9203 41.136 0.164
9.9407 41.107 0.164
9.9611 40.837 0.163
9.9815 40.319 0.162
10.0020 40.609 0.163
10.0224 40.246 0.162
10.0428 39.892 0.161
10.0632 39.798 0.161
10.0836 39.726 0.161
10.1040 39.401 0.160
10.1244 39.616 0.161
10.1449 39.258 0.160
10.1653 39.051 0.159
10.1857 39.119 0.160
10.2061 39.254 0.160
10.2265 38.067 0.157
10.2469 38.677 0.159
10.2674 38.576 0.158
10.2878 38.228 0.158
10.3082 38.216 0.158
10.3286 38.063 0.157
10.3490 37.801 0.157
10.3694 38.223 0.158
10.3898 37.984 0.157
10.4103 37.688 0.157
10.4307 37.716 0.157
10.4511 37.639 0.157
10.4715 37.220 0.156
10.4919 37.643 0.157
10.5123 37.527 0.156
10.5327 37.100 0.155
10.5532 37.594 0.156
10.5736 37.290 0.156
10.5940 36.929 0.155
10.6144 37.048 0.155
10.6348 37.215 0.156
10.6552 36.732 0.155
10.6756 37.121 0.155
10.6961 37.085 0.155
10.7165 36.816 0.155
10.7369 36.920 0.155
10.7573 37.207 0.156
10.7777 36.299 0.154
10.7981 36.916 0.155
10.8186 36.872 0.155
10.8390 36.786 0.155
10.8594 36.751 0.155
10.8798 37.008 0.155
10.9002 36.460 0.154
10.9206 37.169 0.156
10.9410 36.658 0.154
10.9615 36.697 0.155
10.9819 36.676 0.155
11.0023 36.814 0.155
11.0227 36.527 0.154
11.0431 36.680 0.155
11.0635 37.247 0.156
11.0839 36.810 0.155
11.1044 36.701 0.155
11.1248 36.969 0.155
11.1452 36.794 0.155
11.1656 36.921 0.155
11.1860 37.246 0.156
11.2064 37.253 0.156
11.2268 36.988 0.155
11.2473 37.186 0.156
11.2677 37.229 0.156
11.2881 36.986 0.155
11.3085 37.316 0.156
11.3289 37.604 0.156
11.3493 37.096 0.155
11.3698 37.010 0.155
11.3902 37.704 0.157
11.4106 37.273 0.156
11.4310 38.054 0.157
11.4514 37.717 0.157
11.4718 37.356 0.156
11.4922 37.777 0.157
11.5127 37.717 0.157
11.5331 37.435 0.156
11.5535 38.110 0.158
11.5739 38.044 0.157
11.5943 37.798 0.157
11.6147 38.370 0.158
11.6351 38.298 0.158
11.6556 38.120 0.158
11.6760 38.484 0.158
11.6964 38.473 0.158
11.7168 38.194 0.158
11.7372 38.477 0.158
11.7576 38.796 0.159
11.7780 38.393 0.158
11.7985 38.910 0.159
11.8189 38.885 0.159
11.8393 38.602 0.159
11.8597 39.066 0.159
11.8801 38.710 0.159
11.9005 38.428 0.158
11.9210 39.393 0.160
11.9414 39.279 0.160
11.9618 38.863 0.159
11.9822 38.886 0.159
12.0026 39.643 0.161
12.0230 39.572 0.161
12.0434 39.417 0.160
12.0639 39.640 0.161
12.0843 39.263 0.160
12.1047 39.615 0.161
12.1251 39.881 0.161
12.1455 39.803 0.161
12.1659 39.437 0.160
12.1863 40.077 0.162
12.2068 39.938 0.161
12.2272 39.822 0.161
12.2476 40.143 0.162
12.2680 39.964 0.161
12.2884 39.775 0.161
12.3088 40.141 0.162
12.3292 40.559 0.162
12.3497 39.743 0.161
12.3701 40.105 0.162
12.3905 40.129 0.162
12.4109 39.989 0.161
12.4313 40.814 0.163
12.4517 40.411 0.162
12.4722 40.109 0.162
12.4926 40.523 0.162
12.5130 40.440 0.162
12.5334 39.908 0.161
12.5538 40.531 0.162
12.5742 40.229 0.162
12.5946 39.964 0.161
12.6151 40.540 0.162
12.6355 40.327 0.162
12.6559 40.050 0.161
12.6763 40.510 0.162
12.6967 40.932 0.163
12.7171 40.365 0.162
12.7375 40.598 0.163
12.7580 40.378 0.162
12.7784 40.258 0.162
12.7988 40.732 0.163
12.8192 40.507 0.162
12.8396 40.036 0.161
12.8600 40.664 0.163
12.8804 40.516 0.162
12.9009 39.912 0.161
12.9213 40.432 0.162
12.9417 40.497 0.162
12.9621 39.934 0.161
12.9825 40.285 0.162
13.0029 40.104 0.162
13.0234 39.479 0.160
13.0438 40.090 0.162
13.0642 40.170 0.162
13.0846 39.533 0.160
13.1050 39.902 0.161
13.1254 39.855 0.161
13.1458 39.815 0.161
13.1663 39.790 0.161
13.1867 39.717 0.161
13.2071 39.609 0.161
13.2275 39.266 0.160
13.2479 39.533 0.160
13.2683 39.348 0.160
13.2887 39.235 0.160
13.3092 39.370 0.160
13.3296 39.393 0.160
13.3500 38.956 0.159
13.3704 39.378 0.160
13.3908 39.107 0.160
13.4112 38.484 0.158
13.4316 39.145 0.160
13.4521 38.789 0.159
13.4725 38.665 0.159
13.4929 38.841 0.159
13.5133 38.752 0.159
13.5337 38.198 0.158
13.5541 38.410 0.158
13.5746 38.298 0.158
13.5950 38.063 0.157
13.6154 38.117 0.158
13.6358 37.974 0.157
13.6562 37.628 0.157
13.6766 37.745 0.157
13.6970 37.842 0.157
13.7175 37.301 0.156
13.7379 37.641 0.157
13.7583 37.096 0.155
13.7787 37.177 0.156
13.7991 37.368 0.156
13.8195 37.188 0.156
13.8399 36.628 0.154
13.8604 36.962 0.155
13.8808 37.013 0.155
13.9012 36.378 0.154
13.9216 36.471 0.154
13.9420 36.542 0.154
13.9624 36.023 0.153
13.9828 36.025 0.153
14.0033 36.178 0.153
14.0237 35.803 0.153
14.0441 35.645 0.152
14.0645 35.942 0.153
14.0849 35.376 0.152
14.1053 35.719 0.152
14.1258 35.565 0.152
14.1462 35.008 0.151
14.1666 35.222 0.151
14.1870 35.150 0.151
14.2074 34.846 0.151
14.2278 35.042 0.151
14.2482 34.792 0.151
14.2687 34.480 0.150
14.2891 34.499 0.150
14.3095 34.064 0.149
14.3299 34.131 0.149
14.3503 33.934 0.149
14.3707 33.729 0.148
14.3911 33.697 0.148
14.4116 33.583 0.148
14.4320 33.398 0.147
14.4524 33.732 0.148
14.4728 33.230 0.147
14.4932 33.230 0.147
14.5136 32.732 0.146
14.5340 32.795 0.146
14.5545 33.008 0.147
14.5749 32.741 0.146
14.5953 32.316 0.145
14.6157 32.818 0.146
14.6361 32.598 0.146
14.6565 32.128 0.145
14.6770 32.066 0.144
14.6974 32.034 0.144
14.7178 31.853 0.144
14.7382 31.977 0.144
14.7586 31.561 0.143
14.7790 31.167 0.142
14.7994 31.617 0.143
14.8199 31.267 0.143
14.8403 30.734 0.141
14.8607 30.992 0.142
14.8811 30.779 0.142
14.9015 30.325 0.141
14.9219 30.668 0.141
14.9423 30.779 0.142
14.9628 30.173 0.140
14.9832 30.333 0.141
15.0036 30.180 0.140
15.0240 29.875 0.139
15.0444 29.872 0.139
15.0648 29.934 0.140
15.0852 29.516 0.139
15.1057 29.555 0.139
15.1261 29.585 0.139
15.1465 29.372 0.138
15.1669 29.366 0.138
15.1873 29.652 0.139
15.2077 29.147 0.138
15.2282 29.160 0.138
15.2486 28.947 0.137
15.2690 28.617 0.136
15.2894 28.911 0.137
15.3098 28.839 0.137
15.3302 28.219 0.136
15.3506 28.386 0.136
15.3711 28.443 0.136
15.3915 28.025 0.135
15.4119 27.947 0.135
15.4323 28.118 0.135
15.4527 27.963 0.135
15.4731 27.709 0.134
15.4935 27.583 0.134
15.5140 27.743 0.134
15.5344 27.743 0.134
15.5548 27.701 0.134
15.5752 27.324 0.133
15.5956 27.425 0.134
15.6160 27.540 0.134
15.6364 27.364 0.133
15.6569 27.363 0.133
15.6773 27.097 0.133
15.6977 27.185 0.133
15.7181 27.007 0.133
15.7385 27.087 0.133
15.7589 27.096 0.133
15.7794 27.356 0.133
15.7998 27.689 0.134
15.8202 27.626 0.134
15.8406 27.373 0.133
15.8610 27.925 0.135
15.8814 27.603 0.134
15.9018 27.502 0.134
15.9223 27.974 0.135
15.9427 27.910 0.135
15.9631 27.713 0.134
15.9835 27.899 0.135
16.0039 28.090 0.135
16.0243 28.102 0.135
16.0447 28.684 0.137
16.0652 28.865 0.137
16.0856 28.682 0.137
16.1060 29.011 0.137
16.1264 28.623 0.137
16.1468 28.284 0.136
16.1672 28.572 0.136
16.1876 28.321 0.136
16.2081 28.011 0.135
16.2285 28.285 0.136
16.2489 27.993 0.135
16.2693 27.990 0.135
16.2897 28.368 0.136
16.3101 28.544 0.136
16.3306 28.639 0.137
16.3510 29.154 0.138
16.3714 29.813 0.139
16.3918 30.792 0.142
16.4122 32.937 0.146
16.4326 35.457 0.152
16.4530 39.863 0.161
16.4735 48.164 0.177
16.4939 59.380 0.197
16.5143 71.303 0.215
16.5347 74.859 0.221
16.5551 63.081 0.203
16.5755 51.580 0.183
16.5959 49.528 0.180
16.6164 52.174 0.184
16.6368 51.161 0.183
16.6572 43.290 0.168
16.6776 35.432 0.152
16.6980 31.199 0.143
16.7184 29.395 0.138
16.7388 28.684 0.137
16.7593 28.413 0.136
16.7797 28.174 0.135
16.8001 28.201 0.135
16.8205 28.197 0.135
16.8409 27.552 0.134
16.8613 28.042 0.135
16.8818 27.389 0.134
16.9022 27.388 0.134
16.9226 27.360 0.133
16.9430 27.305 0.133
16.9634 26.971 0.133
16.9838 27.515 0.134
17.0042 27.841 0.135
17.0247 28.073 0.135
17.0451 29.117 0.138
17.0655 30.439 0.141
17.0859 32.273 0.145
17.1063 34.598 0.150
17.1267 34.444 0.150
17.1471 32.514 0.145
17.1676 32.535 0.146
17.1880 34.820 0.151
17.2084 38.749 0.159
17.2288 43.727 0.169
17.2492 47.980 0.177
17.2696 46.654 0.174
17.2901 40.253 0.162
17.3105 35.026 0.151
17.3309 34.075 0.149
17.3513 36.445 0.154
17.3717 36.256 0.154
17.3921 32.592 0.146
17.4125 29.090 0.138
17.4330 27.434 0.134
17.4534 26.421 0.131
17.4738 26.515 0.131
17.4942 26.056 0.130
17.5146 26.023 0.130
17.5350 26.030 0.130
17.5554 26.152 0.130
17.5759 25.896 0.130
17.5963 26.183 0.131
17.6167 26.058 0.130
17.6371 25.804 0.130
17.6575 25.757 0.129
17.6779 26.066 0.130
17.6983 25.891 0.130
17.7188 25.676 0.129
17.7392 25.980 0.130
17.7596 25.483 0.129
17.7800 25.710 0.129
17.8004 25.894 0.130
17.8208 25.555 0.129
17.8413 25.399 0.129
17.8617 25.581 0.129
17.8821 25.614 0.129
17.9025 25.294 0.128
17.9229 25.219 0.128
17.9433 25.273 0.128
17.9637 25.399 0.129
17.9842 25.459 0.129
18.0046 25.584 0.129
18.0250 25.333 0.128
18.0454 25.400 0.129
18.0658 25.450 0.129
18.0862 24.929 0.127
18.1066 25.357 0.128
18.1271 25.417 0.129
18.1475 25.126 0.128
18.1679 24.997 0.128
18.1883 25.086 0.128
18.2087 24.798 0.127
18.2291 25.007 0.128
18.2495 24.594 0.127
18.2700 24.805 0.127
18.2904 24.766 0.127
18.3108 24.708 0.127
18.3312 24.321 0.126
18.3516 24.628 0.127
18.3720 24.505 0.126
18.3925 24.273 0.126
18.4129 24.438 0.126
18.4333 24.385 0.126
18.4537 24.324 0.126
18.4741 24.328 0.126
18.4945 24.382 0.126
18.5149 24.117 0.125
18.5354 24.285 0.126
18.5558 24.096 0.125
18.5762 23.842 0.125
18.5966 24.208 0.126
18.6170 24.055 0.125
18.6374 23.787 0.124
18.6578 23.781 0.124
18.6783 24.016 0.125
18.6987 23.839 0.125
18.7191 23.899 0.125
18.7395 23.919 0.125
18.7599 23.609 0.124
18.7803 23.885 0.125
18.8007 23.554 0.124
18.8212 23.335 0.123
18.8416 23.742 0.124
18.8620 23.518 0.124
18.8824 23.419 0.123
18.9028 23.048 0.122
18.9232 23.239 0.123
18.9437 23.148 0.123
18.9641 23.178 0.123
18.9845 23.247 0.123
19.0049 23.007 0.122
19.0253 22.988 0.122
19.0457 23.288 0.123
19.0661 23.139 0.123
19.0866 22.829 0.122
19.1070 23.174 0.123
19.1274 23.230 0.123
19.1478 23.433 0.124
19.1682 23.822 0.125
19.1886 24.165 0.125
19.2090 24.459 0.126
19.2295 25.326 0.128
19.2499 25.357 0.128
19.2703 25.380 0.129
19.2907 25.715 0.129
19.3111 25.581 0.129
19.3315 26.253 0.131
19.3519 26.960 0.132
19.3724 27.215 0.133
19.3928 27.287 0.133
19.4132 27.745 0.134
19.4336 28.203 0.136
19.4540 27.811 0.135
19.4744 28.187 0.135
19.4949 27.981 0.135
19.5153 27.445 0.134
19.5357 27.281 0.133
19.5561 26.817 0.132
19.5765 26.214 0.131
19.5969 26.319 0.131
19.6173 26.214 0.131
19.6378 25.654 0.129
19.6582 26.010 0.130
19.6786 25.768 0.130
19.6990 25.658 0.129
19.7194 26.274 0.131
19.7398 26.898 0.132
19.7602 27.660 0.134
19.7807 29.290 0.138
19.8011 31.730 0.144
19.8215 35.751 0.153
19.8419 42.887 0.167
19.8623 54.560 0.188
19.8827 71.314 0.215
19.9031 93.721 0.247
19.9236 108.239 0.265
19.9440 101.807 0.257
19.9644 82.131 0.231
19.9848 65.873 0.207
20.0052 60.079 0.198
20.0256 64.174 0.204
20.0461 67.723 0.210
20.0665 61.812 0.201
20.0869 48.858 0.178
20.1073 36.980 0.155
20.1277 29.723 0.139
20.1481 25.586 0.129
20.1685 23.689 0.124
20.1890 22.944 0.122
20.2094 22.210 0.120
20.2298 21.863 0.119
20.2502 21.423 0.118
20.2706 20.929 0.117
20.2910 20.984 0.117
20.3114 20.809 0.116
20.3319 20.301 0.115
20.3523 20.392 0.115
20.3727 20.378 0.115
20.3931 20.238 0.115
20.4135 20.393 0.115
20.4339 20.150 0.115
20.4543 19.870 0.114
20.4748 20.086 0.114
20.4952 19.932 0.114
20.5156 19.648 0.113
20.5360 19.566 0.113
20.5564 19.806 0.114
20.5768 19.363 0.112
20.5973 19.449 0.113
20.6177 19.505 0.113
20.6381 19.202 0.112
20.6585 19.367 0.112
20.6789 19.228 0.112
20.6993 19.263 0.112
20.7197 19.208 0.112
20.7402 18.917 0.111
20.7606 19.051 0.111
20.7810 19.049 0.111
20.8014 18.924 0.111
20.8218 18.864 0.111
20.8422 18.938 0.111
20.8626 19.044 0.111
20.8831 18.753 0.110
20.9035 18.867 0.111
20.9239 18.729 0.110
20.9443 18.637 0.110
20.9647 18.818 0.111
20.9851 18.986 0.111
21.0055 18.896 0.111
21.0260 18.958 0.111
21.0464 19.165 0.112
21.0668 18.957 0.111
21.0872 19.167 0.112
21.1076 19.222 0.112
21.1280 19.299 0.112
21.1485 19.125 0.112
21.1689 19.476 0.113
21.1893 19.294 0.112
21.2097 19.333 0.112
21.2301 19.470 0.113
21.2505 19.441 0.113
21.2709 19.242 0.112
21.2914 19.257 0.112
21.3118 18.926 0.111
21.3322 18.999 0.111
21.3526 19.100 0.112
21.3730 18.889 0.111
21.3934 18.824 0.111
21.4138 18.746 0.110
21.4343 18.964 0.111
21.4547 18.704 0.110
21.4751 18.667 0.110
21.4955 18.921 0.111
21.5159 18.547 0.110
21.5363 18.792 0.111
21.5567 18.921 0.111
21.5772 19.076 0.111
21.5976 19.527 0.113
21.6180 20.536 0.116
21.6384 21.410 0.118
21.6588 23.470 0.124
21.6792 26.896 0.132
21.6997 30.704 0.141
21.7201 34.300 0.149
21.7405 33.092 0.147
21.7609 28.408 0.136
21.7813 24.861 0.127
21.8017 23.597 0.124
21.8221 24.202 0.126
21.8426 25.962 0.130
21.8630 26.240 0.131
21.8834 24.235 0.126
21.9038 21.479 0.118
21.9242 19.555 0.113
21.9446 18.621 0.110
21.9650 18.257 0.109
21.9855 17.916 0.108
22.0059 17.722 0.107
22.0263 17.662 0.107
22.0467 17.459 0.107
22.0671 17.329 0.106
22.0875 17.273 0.106
22.1079 17.529 0.107
22.1284 16.930 0.105
22.1488 17.061 0.105
22.1692 17.083 0.105
22.1896 16.967 0.105
22.2100 16.930 0.105
22.2304 17.063 0.105
22.2509 16.972 0.105
22.2713 17.038 0.105
22.2917 16.999 0.105
22.3121 16.895 0.105
22.3325 17.036 0.105
22.3529 17.048 0.105
22.3733 16.794 0.105
22.3938 16.799 0.105
22.4142 16.826 0.105
22.4346 16.650 0.104
22.4550 16.574 0.104
22.4754 16.843 0.105
22.4958 16.796 0.105
22.5162 16.456 0.104
22.5367 16.544 0.104
22.5571 16.541 0.104
22.5775 16.652 0.104
22.5979 16.719 0.104
22.6183 16.667 0.104
22.6387 16.320 0.103
22.6591 16.363 0.103
22.6796 16.441 0.103
22.7000 16.184 0.103
22.7204 16.539 0.104
22.7408 16.232 0.103
22.7612 16.055 0.102
22.7816 16.299 0.103
22.8021 16.280 0.103
22.8225 16.249 0.103
22.8429 16.282 0.103
22.8633 16.161 0.103
22.8837 15.995 0.102
22.9041 16.136 0.102
22.9245 16.122 0.102
22.9450 16.055 0.102
22.9654 16.160 0.103
22.9858 16.072 0.102
23.0062 15.861 0.102
23.0266 15.975 0.102
23.0470 15.989 0.102
23.0674 15.694 0.101
23.0879 15.978 0.102
23.1083 15.975 0.102
23.1287 15.798 0.101
23.1491 15.704 0.101
23.1695 15.860 0.102
23.1899 15.622 0.101
23.2103 15.927 0.102
23.2308 15.414 0.100
23.2512 15.599 0.101
23.2716 15.705 0.101
23.2920 15.460 0.100
23.3124 15.538 0.101
23.3328 15.424 0.100
23.3533 15.289 0.100
23.3737 15.462 0.100
23.3941 15.328 0.100
23.4145 15.385 0.100
23.4349 15.149 0.099
23.4553 15.187 0.099
23.4757 15.321 0.100
23.4962 15.127 0.099
23.5166 15.113 0.099
23.5370 15.217 0.100
23.5574 15.243 0.100
23.5778 14.942 0.099
23.5982 15.318 0.100
23.6186 15.133 0.099
23.6391 15.079 0.099
23.6595 15.216 0.100
23.6799 15.294 0.100
23.7003 14.921 0.099
23.7207 15.025 0.099
23.7411 15.101 0.099
23.7615 15.041 0.099
23.7820 15.011 0.099
23.8024 15.016 0.099
23.8228 14.918 0.099
23.8432 14.844 0.098
23.8636 14.950 0.099
23.8840 14.834 0.098
23.9045 14.770 0.098
23.9249 14.966 0.099
23.9453 14.663 0.098
23.9657 14.902 0.098
23.9861 14.873 0.098
24.0065 14.671 0.098
24.0269 14.996 0.099
24.0474 14.802 0.098
24.0678 14.768 0.098
24.0882 14.781 0.098
24.1086 14.891 0.098
24.1290 14.868 0.098
24.1494 14.929 0.099
24.1698 14.887 0.098
24.1903 14.613 0.098
24.2107 14.847 0.098
24.2311 14.799 0.098
24.2515 14.568 0.097
24.2719 14.623 0.098
24.2923 14.537 0.097
24.3127 14.561 0.097
24.3332 14.566 0.097
24.3536 14.701 0.098
24.3740 14.493 0.097
24.3944 14.704 0.098
24.4148 14.658 0.098
24.4352 14.434 0.097
24.4557 14.504 0.097
24.4761 14.650 0.098
24.4965 14.747 0.098
24.5169 14.583 0.097
24.5373 14.538 0.097
24.5577 14.542 0.097
24.5781 14.485 0.097
24.5986 14.492 0.097
24.6190 14.441 0.097
24.6394 14.370 0.097
24.6598 14.501 0.097
24.6802 14.435 0.097
24.7006 14.484 0.097
24.7210 14.715 0.098
24.7415 14.585 0.097
24.7619 14.312 0.097
24.7823 14.534 0.097
24.8027 14.344 0.097
24.8231 14.372 0.097
24.8435 14.585 0.097
24.8639 14.377 0.097
24.8844 14.051 0.096
24.9048 14.408 0.097
24.9252 14.476 0.097
24.9456 14.305 0.097
24.9660 14.384 0.097
24.9864 14.268 0.096
25.0069 14.302 0.096
25.0273 14.286 0.096
25.0477 14.368 0.097
25.0681 14.249 0.096
25.0885 14.419 0.097
25.1089 14.743 0.098
25.1293 14.251 0.096
25.1498 14.500 0.097
25.1702 14.613 0.098
25.1906 14.563 0.097
25.2110 14.951 0.099
25.2314 15.126 0.099
25.2518 15.161 0.099
25.2722 15.276 0.100
25.2927 15.288 0.100
25.3131 15.238 0.100
25.3335 15.454 0.100
25.3539 15.583 0.101
25.3743 15.439 0.100
25.3947 15.670 0.101
25.4152 15.667 0.101
25.4356 15.406 0.100
25.4560 15.529 0.101
25.4764 15.654 0.101
25.4968 15.470 0.100
25.5172 15.734 0.101
25.5376 15.811 0.101
25.5581 15.517 0.101
25.5785 15.426 0.100
25.5989 15.464 0.100
25.6193 15.201 0.099
25.6397 15.313 0.100
25.6601 15.471 0.100
25.6805 15.690 0.101
25.7010 15.653 0.101
25.7214 15.818 0.101
25.7418 16.114 0.102
25.7622 16.096 0.102
25.7826 17.057 0.105
25.8030 17.941 0.108
25.8234 19.331 0.112
25.8439 20.574 0.116
25.8643 21.896 0.119
25.8847 23.523 0.124
25.9051 26.585 0.132
25.9255 29.436 0.138
25.9459 30.110 0.140
25.9664 29.390 0.138
25.9868 26.359 0.131
26.0072 23.227 0.123
26.0276 21.886 0.119
26.0480 21.525 0.118
26.0684 21.891 0.119
26.0888 23.056 0.123
26.1093 22.965 0.122
26.1297 21.603 0.119
26.1501 19.716 0.113
26.1705 18.113 0.109
26.1909 17.020 0.105
26.2113 16.310 0.103
26.2317 16.025 0.102
26.2522 15.640 0.101
26.2726 15.725 0.101
26.2930 16.069 0.102
26.3134 15.660 0.101
26.3338 16.128 0.102
26.3542 16.198 0.103
26.3746 16.144 0.103
26.3951 16.652 0.104
26.4155 17.124 0.106
26.4359 17.018 0.105
26.4563 17.494 0.107
26.4767 17.976 0.108
26.4971 18.119 0.109
26.5176 18.600 0.110
26.5380 19.240 0.112
26.5584 19.354 0.112
26.5788 20.126 0.114
26.5992 20.594 0.116
26.6196 20.916 0.117
26.6400 21.499 0.118
26.6605 22.409 0.121
26.6809 22.942 0.122
26.7013 23.340 0.123
26.7217 24.145 0.125
26.7421 24.582 0.127
26.7625 25.019 0.128
26.7829 25.917 0.130
26.8034 26.298 0.131
26.8238 26.839 0.132
26.8442 28.143 0.135
26.8646 28.636 0.137
26.8850 28.360 0.136
26.9054 29.147 0.138
26.9258 30.062 0.140
26.9463 29.734 0.139
26.9667 30.682 0.141
26.9871 31.505 0.143
27.0075 30.669 0.141
27.0279 31.313 0.143
27.0483 31.775 0.144
27.0688 31.463 0.143
27.0892 31.792 0.144
27.1096 32.628 0.146
27.1300 31.665 0.144
27.1504 32.161 0.145
27.1708 32.535 0.146
27.1912 31.117 0.142
27.2117 31.031 0.142
27.2321 31.777 0.144
27.2525 30.965 0.142
27.2729 30.199 0.140
27.2933 29.801 0.139
27.3137 28.903 0.137
27.3341 28.638 0.137
27.3546 28.805 0.137
27.3750 27.786 0.134
27.3954 27.290 0.133
27.4158 27.053 0.133
27.4362 26.186 0.131
27.4566 25.420 0.129
27.4770 25.177 0.128
27.4975 24.045 0.125
27.5179 23.513 0.124
27.5383 23.583 0.124
27.5587 22.692 0.122
27.5791 22.227 0.120
27.5995 22.277 0.120
27.6200 21.494 0.118
27.6404 20.777 0.116
27.6608 21.029 0.117
27.6812 20.467 0.115
27.7016 20.063 0.114
27.7220 19.945 0.114
27.7424 19.562 0.113
27.7629 19.425 0.112
27.7833 19.660 0.113
27.8037 19.642 0.113
27.8241 19.406 0.112
27.8445 19.331 0.112
27.8649 19.068 0.111
27.8853 18.799 0.111
27.9058 18.855 0.111
27.9262 18.688 0.110
27.9466 18.630 0.110
27.9670 18.945 0.111
27.9874 18.786 0.111
28.0078 18.558 0.110
28.0282 18.767 0.111
28.0487 18.790 0.111
28.0691 18.484 0.110
28.0895 18.440 0.110
28.1099 18.781 0.111
28.1303 18.574 0.110
28.1507 19.364 0.112
28.1712 20.517 0.116
28.1916 21.859 0.119
28.2120 24.850 0.127
28.2324 28.949 0.137
28.2528 33.992 0.149
28.2732 38.652 0.159
28.2936 39.023 0.159
28.3141 34.771 0.150
28.3345 30.456 0.141
28.3549 27.675 0.134
28.3753 27.585 0.134
28.3957 30.874 0.142
28.4161 37.093 0.155
28.4365 43.934 0.169
28.4570 49.849 0.180
28.4774 48.732 0.178
28.4978 40.854 0.163
28.5182 32.072 0.144
28.5386 26.046 0.130
28.5590 23.003 0.122
28.5794 22.732 0.122
28.5999 24.368 0.126
28.6203 26.343 0.131
28.6407 27.742 0.134
28.6611 26.040 0.130
28.6815 22.515 0.121
28.7019 19.557 0.113
28.7224 16.910 0.105
28.7428 15.767 0.101
28.7632 15.158 0.099
28.7836 15.012 0.099
28.8040 14.738 0.098
28.8244 14.447 0.097
28.8448 14.516 0.097
28.8653 14.428 0.097
28.8857 14.400 0.097
28.9061 14.382 0.097
28.9265 14.270 0.096
28.9469 14.204 0.096
28.9673 14.389 0.097
28.9877 14.381 0.097
29.0082 14.430 0.097
29.0286 14.599 0.097
29.0490 14.783 0.098
29.0694 14.526 0.097
29.0898 14.802 0.098
29.1102 15.104 0.099
29.1306 15.007 0.099
29.1511 15.094 0.099
29.1715 15.016 0.099
29.1919 15.036 0.099
29.2123 15.161 0.099
29.2327 15.267 0.100
29.2531 15.406 0.100
29.2736 15.579 0.101
29.2940 15.637 0.101
29.3144 15.434 0.100
29.3348 15.451 0.100
29.3552 15.530 0.101
29.3756 15.318 0.100
29.3960 15.311 0.100
29.4165 15.199 0.099
29.4369 14.995 0.099
29.4573 15.117 0.099
29.4777 15.070 0.099
29.4981 15.061 0.099
29.5185 15.277 0.100
29.5389 15.478 0.100
29.5594 15.382 0.100
29.5798 15.318 0.100
29.6002 15.498 0.100
29.6206 15.668 0.101
29.6410 16.300 0.103
29.6614 16.878 0.105
29.6818 17.729 0.107
29.7023 19.415 0.112
29.7227 22.034 0.120
29.7431 25.418 0.129
29.7635 28.971 0.137
29.7839 30.158 0.140
29.8043 27.801 0.135
29.8248 24.607 0.127
29.8452 21.180 0.117
29.8656 19.150 0.112
29.8860 18.635 0.110
29.9064 19.190 0.112
29.9268 19.889 0.114
29.9472 21.693 0.119
29.9677 22.160 0.120
29.9881 20.783 0.116
30.0085 18.910 0.111
30.0289 17.116 0.106
30.0493 15.518 0.101
30.0697 14.751 0.098
30.0901 14.554 0.097
30.1106 14.260 0.096
30.1310 14.063 0.096
30.1514 14.066 0.096
30.1718 13.621 0.094
30.1922 13.736 0.095
30.2126 13.717 0.094
30.2330 13.703 0.094
30.2535 13.574 0.094
30.2739 13.620 0.094
30.2943 13.715 0.094
30.3147 13.431 0.094
30.3351 13.520 0.094
30.3555 13.611 0.094
30.3760 13.520 0.094
30.3964 13.460 0.094
30.4168 13.529 0.094
30.4372 13.327 0.093
30.4576 13.572 0.094
30.4780 13.564 0.094
30.4984 13.529 0.094
30.5189 13.702 0.094
30.5393 13.801 0.095
30.5597 13.682 0.094
30.5801 13.796 0.095
30.6005 13.930 0.095
30.6209 13.774 0.095
30.6413 13.965 0.095
30.6618 14.003 0.095
30.6822 13.837 0.095
30.7026 14.008 0.095
30.7230 14.237 0.096
30.7434 14.309 0.097
30.7638 14.565 0.097
30.7842 14.846 0.098
30.8047 14.684 0.098
30.8251 14.835 0.098
30.8455 15.084 0.099
30.8659 15.047 0.099
30.8863 15.246 0.100
30.9067 15.499 0.100
30.9272 15.416 0.100
30.9476 15.681 0.101
30.9680 15.844 0.102
30.9884 15.749 0.101
31.0088 16.087 0.102
31.0292 16.370 0.103
31.0496 16.428 0.103
31.0701 16.435 0.103
31.0905 16.723 0.104
31.1109 16.932 0.105
31.1313 16.906 0.105
31.1517 17.145 0.106
31.1721 17.259 0.106
31.1925 17.242 0.106
31.2130 17.510 0.107
31.2334 17.294 0.106
31.2538 17.219 0.106
31.2742 17.439 0.107
31.2946 17.581 0.107
31.3150 17.560 0.107
31.3354 17.721 0.107
31.3559 17.863 0.108
31.3763 17.450 0.107
31.3967 17.619 0.107
31.4171 17.758 0.108
31.4375 17.459 0.107
31.4579 17.264 0.106
31.4784 17.090 0.105
31.4988 16.794 0.105
31.5192 16.922 0.105
31.5396 16.933 0.105
31.5600 16.445 0.103
31.5804 16.348 0.103
31.6008 16.214 0.103
31.6213 15.928 0.102
31.6417 15.721 0.101
31.6621 15.736 0.101
31.6825 15.172 0.099
31.7029 15.128 0.099
31.7233 14.988 0.099
31.7437 14.718 0.098
31.7642 14.576 0.097
31.7846 14.400 0.097
31.8050 14.140 0.096
31.8254 13.791 0.095
31.8458 13.936 0.095
31.8662 13.706 0.094
31.8866 13.544 0.094
31.9071 13.376 0.093
31.9275 13.139 0.092
31.9479 12.968 0.092
31.9683 13.018 0.092
31.9887 12.926 0.092
32.0091 12.812 0.091
32.0296 12.924 0.092
32.0500 12.609 0.091
32.0704 12.536 0.090
32.0908 12.648 0.091
32.1112 12.456 0.090
32.1316 12.529 0.090
32.1520 12.538 0.090
32.1725 12.421 0.090
32.1929 12.609 0.091
32.2133 12.352 0.090
32.2337 12.302 0.089
32.2541 12.406 0.090
32.2745 12.615 0.091
32.2949 12.555 0.090
32.3154 12.635 0.091
32.3358 12.451 0.090
32.3562 12.448 0.090
32.3766 12.639 0.091
32.3970 12.680 0.091
32.4174 12.489 0.090
32.4378 12.495 0.090
32.4583 12.652 0.091
32.4787 12.641 0.091
32.4991 12.736 0.091
32.5195 12.848 0.091
32.5399 12.872 0.092
32.5603 12.674 0.091
32.5808 12.755 0.091
32.6012 12.828 0.091
32.6216 12.945 0.092
32.6420 12.917 0.092
32.6624 12.986 0.092
32.6828 13.063 0.092
32.7032 13.222 0.093
32.7237 13.085 0.092
32.7441 13.099 0.092
32.7645 13.437 0.094
32.7849 13.300 0.093
32.8053 13.257 0.093
32.8257 13.403 0.093
32.8461 13.665 0.094
32.8666 13.299 0.093
32.8870 13.598 0.094
32.9074 13.659 0.094
32.9278 13.578 0.094
32.9482 13.851 0.095
32.9686 13.960 0.095
32.9890 13.971 0.095
33.0095 14.114 0.096
33.0299 14.499 0.097
33.0503 14.735 0.098
33.0707 15.397 0.100
33.0911 16.656 0.104
33.1115 17.208 0.106
33.1320 18.127 0.109
33.1524 18.048 0.108
33.1728 17.176 0.106
33.1932 16.581 0.104
33.2136 16.145 0.103
33.2340 16.163 0.103
33.2544 16.716 0.104
33.2749 17.637 0.107
33.2953 17.863 0.108
33.3157 18.367 0.109
33.3361 18.268 0.109
33.3565 18.048 0.108
33.3769 18.310 0.109
33.3973 18.893 0.111
33.4178 19.602 0.113
33.4382 20.289 0.115
33.4586 20.961 0.117
33.4790 20.430 0.115
33.4994 19.886 0.114
33.5198 18.829 0.111
33.5402 17.734 0.107
33.5607 16.509 0.104
33.5811 16.007 0.102
33.6015 15.706 0.101
33.6219 15.737 0.101
33.6423 16.036 0.102
33.6627 15.680 0.101
33.6832 15.602 0.101
33.7036 15.158 0.099
33.7240 14.421 0.097
33.7444 14.116 0.096
33.7648 13.762 0.095
33.7852 13.271 0.093
33.8056 12.718 0.091
33.8261 12.455 0.090
33.8465 12.386 0.090
33.8669 12.227 0.089
33.8873 12.225 0.089
33.9077 12.242 0.089
33.9281 11.952 0.088
33.9485 11.890 0.088
33.9690 12.071 0.089
33.9894 11.910 0.088
34.0098 12.072 0.089
34.0302 12.248 0.089
34.0506 11.926 0.088
34.0710 12.049 0.089
34.0915 12.328 0.090
34.1119 12.085 0.089
34.1323 12.273 0.089
34.1527 12.124 0.089
34.1731 12.037 0.089
34.1935 12.257 0.089
34.2139 12.317 0.090
34.2344 12.239 0.089
34.2548 12.290 0.089
34.2752 12.288 0.089
34.2956 12.224 0.089
34.3160 12.432 0.090
34.3364 12.613 0.091
34.3568 12.476 0.090
34.3773 12.622 0.091
34.3977 12.747 0.091
34.4181 12.505 0.090
34.4385 12.798 0.091
34.4589 12.761 0.091
34.4793 12.769 0.091
34.4997 12.850 0.091
34.5202 13.004 0.092
34.5406 12.932 0.092
34.5610 12.980 0.092
34.5814 13.102 0.092
34.6018 13.249 0.093
34.6171 13.269 0.093