File: Data/XRD/NMC_3_GM_bg_subtracted_Cu.csv
'Id:  Comment:  Operator: "Lab Manager" Anode: Mo Scantype: "Coupled TwoTheta/Theta" TimePerStep: 1536 X: 9999 Y: 9999 Z: 9999
4 0 0.268 8.69417
4.0204 0.821 0.269 8.73858
4.0408 -0.43 0.267 8.78299
4.0612 1.784 0.27 8.8274
4.0817 2.711 0.27 8.87203
4.1021 2.323 0.27 8.91644
4.1225 4.491 0.272 8.96086
4.1429 4.817 0.272 9.00527
4.1633 4.94 0.272 9.04969
4.1837 6.171 0.274 9.0941
4.2041 7.172 0.275 9.13852
4.2246 7.339 0.275 9.18316
4.245 8.514 0.276 9.22758
4.2654 9.912 0.277 9.272
4.2858 9.428 0.277 9.31642
4.3062 11.123 0.278 9.36084
4.3266 12.398 0.28 9.40527
4.3471 12.496 0.28 9.44991
4.3675 13.976 0.281 9.49434
4.3879 15.353 0.283 9.53876
4.4083 15.837 0.283 9.58319
4.4287 16.551 0.284 9.62762
4.4491 18.177 0.285 9.67205
4.4695 18.889 0.286 9.71648
4.49 19.597 0.286 9.76114
4.5104 21.692 0.289 9.80557
4.5308 22.776 0.29 9.85001
4.5512 22.976 0.29 9.89444
4.5716 24.894 0.292 9.93888
4.592 26.34 0.293 9.98332
4.6124 26.483 0.293 10.0278
4.6329 28.656 0.295 10.0724
4.6533 29.065 0.296 10.1169
4.6737 29.383 0.296 10.1613
4.6941 31.986 0.298 10.2058
4.7145 32.813 0.299 10.2502
4.7349 32.636 0.299 10.2946
4.7553 36.497 0.303 10.3391
4.7758 36.243 0.302 10.3838
4.7962 37.156 0.303 10.4282
4.8166 40.103 0.306 10.4727
4.837 41.203 0.307 10.5171
4.8574 40.876 0.306 10.5616
4.8778 43.983 0.31 10.606
4.8983 45.288 0.311 10.6507
4.9187 44.73 0.31 10.6952
4.9391 48.104 0.313 10.7396
4.9595 48.954 0.314 10.7841
4.9799 49.247 0.314 10.8285
5.0003 52.626 0.317 10.873
5.0207 53.322 0.318 10.9175
5.0412 53.405 0.318 10.9622
5.0616 56.319 0.321 11.0066
5.082 57.062 0.321 11.0511
5.1024 56.492 0.32 11.0956
5.1228 60.537 0.324 11.14
5.1432 61.538 0.325 11.1845
5.1636 61.084 0.324 11.229
5.1841 64.062 0.327 11.2737
5.2045 64.997 0.328 11.3182
5.2249 64.414 0.327 11.3626
5.2453 67.65 0.33 11.4071
5.2657 68.421 0.331 11.4516
5.2861 67.837 0.33 11.4961
5.3065 70.011 0.332 11.5406
5.327 71.67 0.333 11.5853
5.3474 71.367 0.333 11.6298
5.3678 73.466 0.335 11.6742
5.3882 74.997 0.336 11.7187
5.4086 74.215 0.335 11.7632
5.429 75.835 0.337 11.8077
5.4495 77.303 0.338 11.8524
5.4699 77.038 0.337 11.8969
5.4903 78.029 0.338 11.9414
5.5107 79.411 0.339 11.9859
5.5311 78.933 0.339 12.0304
5.5515 78.73 0.338 12.0749
5.5719 81.67 0.341 12.1194
5.5924 80.653 0.34 12.1641
5.6128 80.248 0.339 12.2086
5.6332 81.861 0.34 12.2532
5.6536 82.145 0.341 12.2977
5.674 82.028 0.34 12.3422
5.6944 83.578 0.342 12.3867
5.7148 82.557 0.34 12.4312
5.7353 82.745 0.34 12.4759
5.7557 83.866 0.341 12.5204
5.7761 82.724 0.34 12.565
5.7965 83.054 0.34 12.6095
5.8169 83.964 0.341 12.654
5.8373 82.603 0.339 12.6985
5.8577 81.795 0.338 12.743
5.8782 84.283 0.34 12.7878
5.8986 83.161 0.339 12.8323
5.919 80.933 0.337 12.8768
5.9394 82.682 0.338 12.9214
5.9598 81.948 0.337 12.9659
5.9802 80.093 0.335 13.0104
6.0007 80.792 0.336 13.0552
6.0211 80.375 0.335 13.0997
6.0415 79.039 0.334 13.1443
6.0619 80.154 0.335 13.1888
6.0823 79.327 0.334 13.2333
6.1027 77.209 0.331 13.2779
6.1231 78.844 0.333 13.3224
6.1436 77.798 0.331 13.3672
6.164 75.337 0.329 13.4117
6.1844 77.058 0.33 13.4563
6.2048 75.464 0.328 13.5008
6.2252 72.616 0.325 13.5454
6.2456 75.288 0.328 13.5899
6.266 73.255 0.326 13.6345
6.2865 71.135 0.323 13.6793
6.3069 73.114 0.325 13.7238
6.3273 71.075 0.323 13.7684
6.3477 68.929 0.32 13.8129
6.3681 70.452 0.322 13.8575
6.3885 69.115 0.32 13.9021
6.4089 67.376 0.318 13.9466
6.4294 67.235 0.318 13.9914
6.4498 66.409 0.317 14.036
6.4702 65.125 0.315 14.0806
6.4906 65.271 0.315 14.1251
6.511 64.625 0.314 14.1697
6.5314 63.201 0.312 14.2143
6.5519 62.969 0.312 14.2591
6.5723 62.086 0.311 14.3037
6.5927 61.067 0.309 14.3483
6.6131 60.67 0.309 14.3928
6.6335 59.677 0.307 14.4374
6.6539 58.363 0.306 14.482
6.6743 58.543 0.306 14.5266
6.6948 57.717 0.305 14.5714
6.7152 56.528 0.303 14.616
6.7356 55.327 0.302 14.6606
6.756 54.85 0.301 14.7052
6.7764 54.149 0.3 14.7498
6.7968 52.722 0.298 14.7944
6.8172 52.939 0.298 14.839
6.8377 51.7 0.296 14.8838
6.8581 50.746 0.295 14.9284
6.8785 50.469 0.294 14.973
6.8989 49.342 0.293 15.0176
6.9193 48.415 0.292 15.0622
6.9397 48.912 0.292 15.1068
6.9601 47.129 0.29 15.1515
6.9806 45.959 0.288 15.1963
7.001 47.034 0.289 15.2409
7.0214 45.193 0.287 15.2855
7.0418 43.889 0.285 15.3301
7.0622 44.857 0.286 15.3748
7.0826 43.346 0.284 15.4194
7.1031 42.032 0.282 15.4642
7.1235 42.394 0.282 15.5089
7.1439 41.519 0.281 15.5535
7.1643 39.742 0.278 15.5981
7.1847 40.259 0.279 15.6428
7.2051 39.348 0.277 15.6874
7.2255 37.398 0.275 15.732
7.246 38.65 0.276 15.7769
7.2664 37.58 0.274 15.8215
7.2868 36.015 0.272 15.8662
7.3072 36.215 0.272 15.9108
7.3276 35.843 0.271 15.9555
7.348 34.288 0.269 16.0001
7.3684 34.355 0.269 16.0448
7.3889 33.576 0.268 16.0896
7.4093 32.338 0.266 16.1343
7.4297 32.775 0.266 16.179
7.4501 31.909 0.265 16.2236
7.4705 30.497 0.263 16.2683
7.4909 30.774 0.263 16.3129
7.5113 30.29 0.262 16.3576
7.5318 29.045 0.26 16.4025
7.5522 29.448 0.26 16.4472
7.5726 29.16 0.259 16.4918
7.593 27.595 0.257 16.5365
7.6134 27.229 0.256 16.5812
7.6338 27.138 0.256 16.6259
7.6543 26.227 0.254 16.6708
7.6747 25.648 0.253 16.7154
7.6951 25.807 0.253 16.7601
7.7155 24.389 0.251 16.8048
7.7359 24.438 0.251 16.8495
7.7563 23.789 0.25 16.8942
7.7767 23.497 0.249 16.9389
7.7972 22.432 0.247 16.9838
7.8176 22.302 0.247 17.0285
7.838 21.56 0.245 17.0732
7.8584 20.717 0.244 17.1179
7.8788 20.775 0.243 17.1626
7.8992 19.604 0.241 17.2073
7.9196 19.147 0.24 17.252
7.9401 19.624 0.241 17.2969
7.9605 19.185 0.24 17.3416
7.9809 18.001 0.238 17.3863
8.0013 18.254 0.238 17.4311
8.0217 17.533 0.236 17.4758
8.0421 16.452 0.235 17.5205
8.0625 16.643 0.234 17.5652
8.083 16.225 0.233 17.6101
8.1034 15.09 0.231 17.6549
8.1238 15.393 0.232 17.6996
8.1442 14.54 0.23 17.7443
8.1646 13.661 0.228 17.7891
8.185 14.892 0.23 17.8338
8.2055 14.517 0.229 17.8787
8.2259 14.125 0.228 17.9235
8.2463 15.924 0.23 17.9682
8.2667 16.065 0.23 18.013
8.2871 15.856 0.229 18.0577
8.3075 17.595 0.231 18.1025
8.3279 18.732 0.232 18.1472
8.3484 19.673 0.233 18.1922
8.3688 23.623 0.238 18.2369
8.3892 27.993 0.244 18.2817
8.4096 33.258 0.25 18.3264
8.43 45.05 0.265 18.3712
8.4504 61.576 0.284 18.416
8.4708 80.926 0.305 18.4607
8.4913 86.846 0.311 18.5057
8.5117 62.383 0.284 18.5505
8.5321 48.675 0.268 18.5953
8.5525 35.487 0.251 18.64
8.5729 17.548 0.226 18.6848
8.5933 10.58 0.215 18.7296
8.6138 9.109 0.212 18.7746
8.6342 7.522 0.209 18.8194
8.6546 6.228 0.207 18.8641
8.675 5.848 0.206 18.9089
8.6954 5.476 0.205 18.9537
8.7158 4.917 0.203 18.9985
8.7362 4.768 0.203 19.0433
8.7567 4.046 0.201 19.0883
8.7771 3.574 0.2 19.1331
8.7975 3.517 0.199 19.1779
8.8179 3.242 0.198 19.2227
8.8383 3.017 0.197 19.2675
8.8587 2.612 0.196 19.3123
8.8791 2.833 0.196 19.3572
8.8996 2.292 0.195 19.4022
8.92 2.456 0.194 19.447
8.9404 2.617 0.194 19.4918
8.9608 1.821 0.192 19.5366
8.9812 1.341 0.191 19.5815
9.0016 1.89 0.191 19.6263
9.022 1.205 0.19 19.6711
9.0425 0.995 0.189 19.7162
9.0629 1.391 0.189 19.761
9.0833 1.166 0.188 19.8058
9.1037 0.609 0.187 19.8507
9.1241 1.059 0.187 19.8955
9.1445 0.598 0.185 19.9403
9.165 0.402 0.185 19.9854
9.1854 0.824 0.185 20.0303
9.2058 0.506 0.184 20.0751
9.2262 0.043 0.182 20.12
9.2466 0.417 0.182 20.1648
9.267 0.028 0.181 20.2097
9.2874 0.107 0.181 20.2545
9.3079 0.667 0.181 20.2996
9.3283 0.378 0.18 20.3445
9.3487 -0.247 0.178 20.3893
9.3691 0.284 0.179 20.4342
9.3895 0.173 0.178 20.4791
9.4099 -0.158 0.177 20.524
9.4303 0.349 0.177 20.5688
9.4508 0.329 0.177 20.6139
9.4712 -0.296 0.175 20.6588
9.4916 0.673 0.176 20.7037
9.512 -0.001 0.174 20.7486
9.5324 -0.472 0.173 20.7935
9.5528 0.459 0.174 20.8384
9.5732 0.216 0.173 20.8833
9.5937 -0.166 0.172 20.9284
9.6141 0.483 0.172 20.9733
9.6345 0.392 0.172 21.0182
9.6549 -0.165 0.17 21.0631
9.6753 0.103 0.17 21.108
9.6957 -0.067 0.169 21.1529
9.7162 -0.398 0.168 21.198
9.7366 0.217 0.169 21.2429
9.757 -0.024 0.168 21.2879
9.7774 -0.062 0.167 21.3328
9.7978 -0.066 0.167 21.3777
9.8182 -0.215 0.166 21.4226
9.8386 -0.083 0.166 21.4676
9.8591 -0.256 0.165 21.5127
9.8795 0.171 0.165 21.5576
9.8999 -0.084 0.164 21.6026
9.9203 -0.177 0.164 21.6475
9.9407 0.012 0.164 21.6925
9.9611 -0.039 0.163 21.7374
9.9815 -0.338 0.162 21.7824
10.002 0.172 0.163 21.8275
10.0224 -0.007 0.162 21.8725
10.0428 -0.189 0.161 21.9174
10.0632 -0.11 0.161 21.9624
10.0836 -0.009 0.161 22.0074
10.104 -0.16 0.16 22.0523
10.1244 0.197 0.161 22.0973
10.1449 -0.018 0.16 22.1425
10.1653 -0.082 0.159 22.1874
10.1857 0.131 0.16 22.2324
10.2061 0.41 0.16 22.2774
10.2265 -0.631 0.157 22.3224
10.2469 0.103 0.159 22.3674
10.2674 0.103 0.158 22.4126
10.2878 -0.143 0.158 22.4576
10.3082 -0.052 0.158 22.5025
10.3286 -0.102 0.157 22.5475
10.349 -0.259 0.157 22.5925
10.3694 0.267 0.158 22.6375
10.3898 0.134 0.157 22.6825
10.4103 -0.065 0.157 22.7278
10.4307 0.037 0.157 22.7728
10.4511 0.035 0.157 22.8178
10.4715 -0.31 0.156 22.8628
10.4919 0.186 0.157 22.9078
10.5123 0.145 0.156 22.9528
10.5327 -0.207 0.155 22.9978
10.5532 0.329 0.156 23.0431
10.5736 0.068 0.156 23.0881
10.594 -0.25 0.155 23.1332
10.6144 -0.096 0.155 23.1782
10.6348 0.106 0.156 23.2232
10.6552 -0.34 0.155 23.2683
10.6756 0.086 0.155 23.3133
10.6961 0.087 0.155 23.3586
10.7165 -0.143 0.155 23.4036
10.7369 -0.001 0.155 23.4487
10.7573 0.325 0.156 23.4937
10.7777 -0.55 0.154 23.5388
10.7981 0.075 0.155 23.5838
10.8186 0.041 0.155 23.6291
10.839 -0.036 0.155 23.6742
10.8594 -0.06 0.155 23.7193
10.8798 0.208 0.155 23.7643
10.9002 -0.327 0.154 23.8094
10.9206 0.387 0.156 23.8545
10.941 -0.127 0.154 23.8996
10.9615 -0.089 0.155 23.9449
10.9819 -0.111 0.155 23.99
11.0023 0.026 0.155 24.035
11.0227 -0.261 0.154 24.0801
11.0431 -0.107 0.155 24.1252
11.0635 0.461 0.156 24.1703
11.0839 0.026 0.155 24.2154
11.1044 -0.087 0.155 24.2608
11.1248 0.157 0.155 24.3059
11.1452 -0.043 0.155 24.351
11.1656 0.061 0.155 24.3961
11.186 0.364 0.156 24.4412
11.2064 0.349 0.156 24.4863
11.2268 0.063 0.155 24.5314
11.2473 0.24 0.156 24.5768
11.2677 0.262 0.156 24.6219
11.2881 0 0.155 24.6671
11.3085 0.311 0.156 24.7122
11.3289 0.582 0.156 24.7573
11.3493 0.056 0.155 24.8025
11.3698 -0.047 0.155 24.8478
11.3902 0.631 0.157 24.893
11.4106 0.184 0.156 24.9381
11.431 0.95 0.157 24.9833
11.4514 0.598 0.157 25.0284
11.4718 0.224 0.156 25.0736
11.4922 0.632 0.157 25.1188
11.5127 0.559 0.157 25.1642
11.5331 0.265 0.156 25.2093
11.5535 0.929 0.158 25.2545
11.5739 0.853 0.157 25.2997
11.5943 0.596 0.157 25.3449
11.6147 1.159 0.158 25.39
11.6351 1.078 0.158 25.4352
11.6556 0.893 0.158 25.4806
11.676 1.249 0.158 25.5258
11.6964 1.23 0.158 25.571
11.7168 0.946 0.158 25.6162
11.7372 1.223 0.158 25.6614
11.7576 1.537 0.159 25.7066
11.778 1.129 0.158 25.7518
11.7985 1.643 0.159 25.7973
11.8189 1.615 0.159 25.8425
11.8393 1.329 0.159 25.8877
11.8597 1.792 0.159 25.9329
11.8801 1.434 0.159 25.9781
11.9005 1.152 0.158 26.0234
11.921 2.117 0.16 26.0688
11.9414 2.004 0.16 26.1141
11.9618 1.589 0.159 26.1593
11.9822 1.614 0.159 26.2045
12.0026 2.374 0.161 26.2498
12.023 2.306 0.161 26.295
12.0434 2.155 0.16 26.3403
12.0639 2.382 0.161 26.3858
12.0843 2.011 0.16 26.431
12.1047 2.368 0.161 26.4763
12.1251 2.64 0.161 26.5215
12.1455 2.569 0.161 26.5668
12.1659 2.211 0.16 26.6121
12.1863 2.86 0.162 26.6573
12.2068 2.73 0.161 26.7028
12.2272 2.623 0.161 26.7481
12.2476 2.954 0.162 26.7934
12.268 2.786 0.161 26.8387
12.2884 2.608 0.161 26.884
12.3088 2.986 0.162 26.9293
12.3292 3.417 0.162 26.9746
12.3497 2.615 0.161 27.0201
12.3701 2.991 0.162 27.0654
12.3905 3.029 0.162 27.1107
12.4109 2.904 0.161 27.156
12.4313 3.745 0.163 27.2013
12.4517 3.359 0.162 27.2467
12.4722 3.073 0.162 27.2922
12.4926 3.505 0.162 27.3375
12.513 3.441 0.162 27.3829
12.5334 2.928 0.161 27.4282
12.5538 3.57 0.162 27.4735
12.5742 3.288 0.162 27.5189
12.5946 3.044 0.161 27.5642
12.6151 3.642 0.162 27.6098
12.6355 3.451 0.162 27.6551
12.6559 3.197 0.161 27.7005
12.6763 3.681 0.162 27.7459
12.6967 4.127 0.163 27.7912
12.7171 3.584 0.162 27.8366
12.7375 3.842 0.163 27.8819
12.758 3.648 0.162 27.9275
12.7784 3.555 0.162 27.9729
12.7988 4.057 0.163 28.0183
12.8192 3.859 0.162 28.0637
12.8396 3.417 0.161 28.1091
12.86 4.074 0.163 28.1544
12.8804 3.955 0.162 28.1998
12.9009 3.382 0.161 28.2455
12.9213 3.932 0.162 28.2909
12.9417 4.03 0.162 28.3363
12.9621 3.498 0.161 28.3817
12.9825 3.882 0.162 28.4271
13.0029 3.735 0.162 28.4725
13.0234 3.143 0.16 28.5181
13.0438 3.789 0.162 28.5636
13.0642 3.905 0.162 28.609
13.0846 3.304 0.16 28.6544
13.105 3.709 0.161 28.6998
13.1254 3.7 0.161 28.7453
13.1458 3.698 0.161 28.7907
13.1663 3.712 0.161 28.8364
13.1867 3.678 0.161 28.8818
13.2071 3.61 0.161 28.9273
13.2275 3.306 0.16 28.9727
13.2479 3.615 0.16 29.0182
13.2683 3.471 0.16 29.0637
13.2887 3.401 0.16 29.1091
13.3092 3.579 0.16 29.1548
13.3296 3.646 0.16 29.2003
13.35 3.252 0.159 29.2458
13.3704 3.72 0.16 29.2913
13.3908 3.494 0.16 29.3367
13.4112 2.917 0.158 29.3822
13.4316 3.625 0.16 29.4277
13.4521 3.316 0.159 29.4734
13.4725 3.24 0.159 29.5189
13.4929 3.465 0.159 29.5645
13.5133 3.425 0.159 29.61
13.5337 2.921 0.158 29.6555
13.5541 3.183 0.158 29.701
13.5746 3.122 0.158 29.7467
13.595 2.939 0.157 29.7923
13.6154 3.046 0.158 29.8378
13.6358 2.956 0.157 29.8833
13.6562 2.663 0.157 29.9288
13.6766 2.834 0.157 29.9744
13.697 2.987 0.157 30.0199
13.7175 2.501 0.156 30.0657
13.7379 2.897 0.157 30.1112
13.7583 2.409 0.155 30.1568
13.7787 2.548 0.156 30.2024
13.7991 2.797 0.156 30.2479
13.8195 2.675 0.156 30.2935
13.8399 2.175 0.154 30.3391
13.8604 2.568 0.155 30.3849
13.8808 2.68 0.155 30.4304
13.9012 2.107 0.154 30.476
13.9216 2.262 0.154 30.5216
13.942 2.394 0.154 30.5672
13.9624 1.939 0.153 30.6128
13.9828 2.004 0.153 30.6584
14.0033 2.222 0.153 30.7042
14.0237 1.912 0.153 30.7498
14.0441 1.819 0.152 30.7954
14.0645 2.183 0.153 30.841
14.0849 1.683 0.152 30.8867
14.1053 2.095 0.152 30.9323
14.1258 2.009 0.152 30.9781
14.1462 1.521 0.151 31.0238
14.1666 1.804 0.151 31.0694
14.187 1.802 0.151 31.115
14.2074 1.568 0.151 31.1607
14.2278 1.835 0.151 31.2063
14.2482 1.658 0.151 31.252
14.2687 1.419 0.15 31.2978
14.2891 1.51 0.15 31.3435
14.3095 1.149 0.149 31.3892
14.3299 1.291 0.149 31.4348
14.3503 1.169 0.149 31.4805
14.3707 1.039 0.148 31.5262
14.3911 1.084 0.148 31.5719
14.4116 1.047 0.148 31.6178
14.432 0.939 0.147 31.6634
14.4524 1.352 0.148 31.7091
14.4728 0.929 0.147 31.7548
14.4932 1.009 0.147 31.8005
14.5136 0.591 0.146 31.8462
14.534 0.734 0.146 31.8919
14.5545 1.028 0.147 31.9379
14.5749 0.843 0.146 31.9836
14.5953 0.502 0.145 32.0293
14.6157 1.087 0.146 32.075
14.6361 0.951 0.146 32.1208
14.6565 0.565 0.145 32.1665
14.677 0.588 0.144 32.2125
14.6974 0.642 0.144 32.2582
14.7178 0.547 0.144 32.3039
14.7382 0.758 0.144 32.3497
14.7586 0.43 0.143 32.3955
14.779 0.124 0.142 32.4412
14.7994 0.664 0.143 32.487
14.8199 0.403 0.143 32.533
14.8403 -0.039 0.141 32.5787
14.8607 0.309 0.142 32.6245
14.8811 0.187 0.142 32.6703
14.9015 -0.175 0.141 32.7161
14.9219 0.261 0.141 32.7619
14.9423 0.466 0.142 32.8077
14.9628 -0.046 0.14 32.8537
14.9832 0.209 0.141 32.8995
15.0036 0.15 0.14 32.9453
15.024 -0.059 0.139 32.9911
15.0444 0.035 0.139 33.0369
15.0648 0.194 0.14 33.0827
15.0852 -0.126 0.139 33.1285
15.1057 0.011 0.139 33.1746
15.1261 0.141 0.139 33.2204
15.1465 0.027 0.138 33.2663
15.1669 0.121 0.138 33.3121
15.1873 0.509 0.139 33.358
15.2077 0.105 0.138 33.4038
15.2282 0.22 0.138 33.4499
15.2486 0.11 0.137 33.4957
15.269 -0.122 0.136 33.5416
15.2894 0.257 0.137 33.5875
15.3098 0.268 0.137 33.6333
15.3302 -0.265 0.136 33.6792
15.3506 -0.013 0.136 33.7251
15.3711 0.131 0.136 33.7712
15.3915 -0.2 0.135 33.8171
15.4119 -0.191 0.135 33.863
15.4323 0.069 0.135 33.9089
15.4527 0.003 0.135 33.9548
15.4731 -0.162 0.134 34.0007
15.4935 -0.198 0.134 34.0466
15.514 0.034 0.134 34.0928
15.5344 0.106 0.134 34.1387
15.5548 0.135 0.134 34.1846
15.5752 -0.178 0.133 34.2305
15.5956 -0.022 0.134 34.2765
15.616 0.148 0.134 34.3224
15.6364 0.028 0.133 34.3683
15.6569 0.085 0.133 34.4145
15.6773 -0.124 0.133 34.4605
15.6977 0.014 0.133 34.5064
15.7181 -0.134 0.133 34.5524
15.7385 -0.035 0.133 34.5984
15.7589 -0.041 0.133 34.6443
15.7794 0.205 0.133 34.6905
15.7998 0.523 0.134 34.7365
15.8202 0.447 0.134 34.7825
15.8406 0.182 0.133 34.8285
15.861 0.722 0.135 34.8745
15.8814 0.389 0.134 34.9205
15.9018 0.277 0.134 34.9665
15.9223 0.739 0.135 35.0127
15.9427 0.666 0.135 35.0587
15.9631 0.46 0.134 35.1047
15.9835 0.638 0.135 35.1508
16.0039 0.822 0.135 35.1968
16.0243 0.827 0.135 35.2428
16.0447 1.402 0.137 35.2889
16.0652 1.578 0.137 35.3351
16.0856 1.39 0.137 35.3812
16.106 1.715 0.137 35.4272
16.1264 1.323 0.137 35.4733
16.1468 0.981 0.136 35.5193
16.1672 1.266 0.136 35.5654
16.1876 1.014 0.136 35.6115
16.2081 0.702 0.135 35.6578
16.2285 0.976 0.136 35.7039
16.2489 0.684 0.135 35.7499
16.2693 0.682 0.135 35.796
16.2897 1.061 0.136 35.8421
16.3101 1.239 0.136 35.8882
16.3306 1.337 0.137 35.9346
16.351 1.855 0.138 35.9807
16.3714 2.517 0.139 36.0268
16.3918 3.501 0.142 36.0729
16.4122 5.651 0.146 36.119
16.4326 8.177 0.152 36.1651
16.453 12.589 0.161 36.2113
16.4735 20.897 0.177 36.2576
16.4939 32.121 0.197 36.3038
16.5143 44.052 0.215 36.3499
16.5347 47.617 0.221 36.3961
16.5551 35.849 0.203 36.4422
16.5755 24.358 0.183 36.4884
16.5959 22.317 0.18 36.5346
16.6164 24.975 0.184 36.581
16.6368 23.974 0.183 36.6272
16.6572 16.115 0.168 36.6733
16.6776 8.271 0.152 36.7195
16.698 4.051 0.143 36.7657
16.7184 2.261 0.138 36.8119
16.7388 1.566 0.137 36.8581
16.7593 1.311 0.136 36.9045
16.7797 1.089 0.135 36.9508
16.8001 1.133 0.135 36.997
16.8205 1.146 0.135 37.0432
16.8409 0.52 0.134 37.0894
16.8613 1.028 0.135 37.1357
16.8818 0.395 0.134 37.1821
16.9022 0.414 0.134 37.2284
16.9226 0.407 0.133 37.2746
16.943 0.373 0.133 37.3209
16.9634 0.062 0.133 37.3671
16.9838 0.629 0.134 37.4134
17.0042 0.978 0.135 37.4596
17.0247 1.234 0.135 37.5061
17.0451 2.303 0.138 37.5524
17.0655 3.651 0.141 37.5987
17.0859 5.51 0.145 37.645
17.1063 7.861 0.15 37.6913
17.1267 7.735 0.15 37.7376
17.1471 5.832 0.145 37.7839
17.1676 5.882 0.146 37.8304
17.188 8.196 0.151 37.8767
17.2084 12.155 0.159 37.9231
17.2288 17.163 0.169 37.9694
17.2492 21.448 0.177 38.0157
17.2696 20.153 0.174 38.062
17.2901 13.784 0.162 38.1086
17.3105 8.59 0.151 38.155
17.3309 7.672 0.149 38.2013
17.3513 10.076 0.154 38.2477
17.3717 9.922 0.154 38.294
17.3921 6.294 0.146 38.3404
17.4125 2.828 0.138 38.3868
17.433 1.208 0.134 38.4334
17.4534 0.232 0.131 38.4798
17.4738 0.364 0.131 38.5261
17.4942 -0.056 0.13 38.5725
17.5146 -0.05 0.13 38.6189
17.535 -0.003 0.13 38.6653
17.5554 0.158 0.13 38.7117
17.5759 -0.059 0.13 38.7584
17.5963 0.267 0.131 38.8048
17.6167 0.182 0.13 38.8512
17.6371 -0.031 0.13 38.8977
17.6575 -0.041 0.129 38.9441
17.6779 0.297 0.13 38.9905
17.6983 0.15 0.13 39.037
17.7188 -0.037 0.129 39.0837
17.7392 0.298 0.13 39.1301
17.7596 -0.169 0.129 39.1766
17.78 0.088 0.129 39.223
17.8004 0.304 0.13 39.2695
17.8208 -0.003 0.129 39.316
17.8413 -0.126 0.129 39.3627
17.8617 0.09 0.129 39.4092
17.8821 0.157 0.129 39.4557
17.9025 -0.128 0.128 39.5022
17.9229 -0.169 0.128 39.5487
17.9433 -0.079 0.128 39.5952
17.9637 0.083 0.129 39.6417
17.9842 0.179 0.129 39.6885
18.0046 0.341 0.129 39.735
18.025 0.128 0.128 39.7815
18.0454 0.233 0.129 39.8281
18.0658 0.322 0.129 39.8746
18.0862 -0.159 0.127 39.9212
18.1066 0.309 0.128 39.9677
18.1271 0.41 0.129 40.0145
18.1475 0.16 0.128 40.0611
18.1679 0.073 0.128 40.1076
18.1883 0.204 0.128 40.1542
18.2087 -0.042 0.127 40.2008
18.2291 0.21 0.128 40.2474
18.2495 -0.159 0.127 40.294
18.27 0.097 0.127 40.3408
18.2904 0.102 0.127 40.3874
18.3108 0.09 0.127 40.434
18.3312 -0.251 0.126 40.4807
18.3516 0.098 0.127 40.5273
18.372 0.017 0.126 40.5739
18.3925 -0.172 0.126 40.6208
18.4129 0.037 0.126 40.6674
18.4333 0.028 0.126 40.7141
18.4537 0.012 0.126 40.7607
18.4741 0.061 0.126 40.8074
18.4945 0.161 0.126 40.854
18.5149 -0.057 0.125 40.9007
18.5354 0.158 0.126 40.9476
18.5558 0.018 0.125 40.9943
18.5762 -0.188 0.125 41.041
18.5966 0.227 0.126 41.0877
18.617 0.124 0.125 41.1343
18.6374 -0.094 0.124 41.1811
18.6578 -0.049 0.124 41.2278
18.6783 0.23 0.125 41.2747
18.6987 0.089 0.125 41.3214
18.7191 0.185 0.125 41.3681
18.7395 0.242 0.125 41.4149
18.7599 -0.029 0.124 41.4616
18.7803 0.285 0.125 41.5084
18.8007 -0.007 0.124 41.5551
18.8212 -0.186 0.123 41.6021
18.8416 0.261 0.124 41.6489
18.862 0.077 0.124 41.6956
18.8824 0.02 0.123 41.7424
18.9028 -0.309 0.122 41.7892
18.9232 -0.075 0.123 41.836
18.9437 -0.123 0.123 41.883
18.9641 -0.054 0.123 41.9298
18.9845 0.056 0.123 41.9766
19.0049 -0.145 0.122 42.0234
19.0253 -0.122 0.122 42.0702
19.0457 0.202 0.123 42.117
19.0661 0.078 0.123 42.1639
19.0866 -0.205 0.122 42.2109
19.107 0.166 0.123 42.2578
19.1274 0.249 0.123 42.3046
19.1478 0.479 0.124 42.3514
19.1682 0.896 0.125 42.3983
19.1886 1.268 0.125 42.4452
19.209 1.592 0.126 42.492
19.2295 2.489 0.128 42.5391
19.2499 2.551 0.128 42.586
19.2703 2.605 0.129 42.6329
19.2907 2.972 0.129 42.6798
19.3111 2.871 0.129 42.7267
19.3315 3.577 0.131 42.7736
19.3519 4.317 0.132 42.8205
19.3724 4.607 0.133 42.8677
19.3928 4.714 0.133 42.9146
19.4132 5.208 0.134 42.9615
19.4336 5.702 0.136 43.0084
19.454 5.347 0.135 43.0554
19.4744 5.761 0.135 43.1023
19.4949 5.593 0.135 43.1495
19.5153 5.096 0.134 43.1965
19.5357 4.972 0.133 43.2434
19.5561 4.548 0.132 43.2904
19.5765 3.986 0.131 43.3374
19.5969 4.132 0.131 43.3844
19.6173 4.07 0.131 43.4314
19.6378 3.553 0.129 43.4786
19.6582 3.952 0.13 43.5256
19.6786 3.754 0.13 43.5726
19.699 3.688 0.129 43.6196
19.7194 4.35 0.131 43.6667
19.7398 5.019 0.132 43.7137
19.7602 5.828 0.134 43.7607
19.7807 7.505 0.138 43.808
19.8011 9.994 0.144 43.855
19.8215 14.063 0.153 43.9021
19.8419 21.248 0.167 43.9491
19.8623 32.97 0.188 43.9962
19.8827 49.775 0.215 44.0433
19.9031 72.233 0.247 44.0904
19.9236 86.802 0.265 44.1377
19.944 80.423 0.257 44.1848
19.9644 60.799 0.231 44.2319
19.9848 44.595 0.207 44.279
20.0052 38.855 0.198 44.3261
20.0256 43.005 0.204 44.3732
20.0461 46.608 0.21 44.4206
20.0665 40.754 0.201 44.4677
20.0869 27.856 0.178 44.5148
20.1073 16.035 0.155 44.562
20.1277 8.837 0.139 44.6091
20.1481 4.758 0.129 44.6563
20.1685 2.92 0.124 44.7034
20.189 2.235 0.122 44.7508
20.2094 1.562 0.12 44.798
20.2298 1.275 0.119 44.8452
20.2502 0.896 0.118 44.8924
20.2706 0.465 0.117 44.9396
20.291 0.584 0.117 44.9868
20.3114 0.471 0.116 45.034
20.3319 0.028 0.115 45.0814
20.3523 0.184 0.115 45.1287
20.3727 0.235 0.115 45.1759
20.3931 0.161 0.115 45.2231
20.4135 0.383 0.115 45.2704
20.4339 0.207 0.115 45.3176
20.4543 -0.004 0.114 45.3649
20.4748 0.28 0.114 45.4124
20.4952 0.195 0.114 45.4596
20.5156 -0.019 0.113 45.5069
20.536 -0.031 0.113 45.5542
20.5564 0.271 0.114 45.6015
20.5768 -0.117 0.112 45.6488
20.5973 0.022 0.113 45.6963
20.6177 0.134 0.113 45.7436
20.6381 -0.114 0.112 45.7909
20.6585 0.108 0.112 45.8382
20.6789 0.026 0.112 45.8856
20.6993 0.118 0.112 45.9329
20.7197 0.121 0.112 45.9803
20.7402 -0.111 0.111 46.0278
20.7606 0.046 0.111 46.0752
20.781 0.068 0.111 46.1225
20.8014 -0.033 0.111 46.1699
20.8218 -0.068 0.111 46.2173
20.8422 0.031 0.111 46.2647
20.8626 0.163 0.111 46.3121
20.8831 -0.102 0.11 46.3597
20.9035 0.04 0.111 46.4071
20.9239 -0.07 0.11 46.4545
20.9443 -0.147 0.11 46.5019
20.9647 0.044 0.111 46.5493
20.9851 0.223 0.111 46.5968
21.0055 0.145 0.111 46.6442
21.026 0.218 0.111 46.6919
21.0464 0.438 0.112 46.7393
21.0668 0.244 0.111 46.7868
21.0872 0.469 0.112 46.8343
21.1076 0.538 0.112 46.8817
21.128 0.631 0.112 46.9292
21.1485 0.473 0.112 46.9769
21.1689 0.84 0.113 47.0244
21.1893 0.676 0.112 47.0719
21.2097 0.733 0.112 47.1194
21.2301 0.888 0.113 47.1669
21.2505 0.878 0.113 47.2145
21.2709 0.699 0.112 47.262
21.2914 0.734 0.112 47.3098
21.3118 0.425 0.111 47.3573
21.3322 0.519 0.111 47.4049
21.3526 0.643 0.112 47.4524
21.373 0.455 0.111 47.5
21.3934 0.413 0.111 47.5475
21.4138 0.36 0.11 47.5951
21.4343 0.603 0.111 47.6429
21.4547 0.368 0.11 47.6905
21.4751 0.358 0.11 47.7381
21.4955 0.638 0.111 47.7857
21.5159 0.291 0.11 47.8333
21.5363 0.565 0.111 47.881
21.5567 0.722 0.111 47.9286
21.5772 0.906 0.111 47.9765
21.5976 1.387 0.113 48.0241
21.618 2.427 0.116 48.0718
21.6384 3.332 0.118 48.1194
21.6588 5.424 0.124 48.1671
21.6792 8.882 0.132 48.2147
21.6997 12.723 0.141 48.2627
21.7201 16.353 0.149 48.3103
21.7405 15.18 0.147 48.358
21.7609 10.53 0.136 48.4057
21.7813 7.019 0.127 48.4534
21.8017 5.791 0.124 48.5012
21.8221 6.434 0.126 48.5489
21.8426 8.23 0.13 48.5968
21.863 8.546 0.131 48.6446
21.8834 6.581 0.126 48.6923
21.9038 3.863 0.118 48.7401
21.9242 1.98 0.113 48.7878
21.9446 1.087 0.11 48.8356
21.965 0.763 0.109 48.8834
21.9855 0.465 0.108 48.9314
22.0059 0.313 0.107 48.9792
22.0263 0.296 0.107 49.027
22.0467 0.137 0.107 49.0748
22.0671 0.052 0.106 49.1226
22.0875 0.04 0.106 49.1704
22.1079 0.342 0.107 49.2182
22.1284 -0.211 0.105 49.2663
22.1488 -0.032 0.105 49.3141
22.1692 0.038 0.105 49.362
22.1896 -0.043 0.105 49.4098
22.21 -0.056 0.105 49.4577
22.2304 0.101 0.105 49.5056
22.2509 0.036 0.105 49.5537
22.2713 0.126 0.105 49.6016
22.2917 0.111 0.105 49.6495
22.3121 0.03 0.105 49.6974
22.3325 0.197 0.105 49.7453
22.3529 0.234 0.105 49.7932
22.3733 0.006 0.105 49.8411
22.3938 0.039 0.105 49.8893
22.4142 0.092 0.105 49.9372
22.4346 -0.055 0.104 49.9852
22.455 -0.103 0.104 50.0331
22.4754 0.196 0.105 50.0811
22.4958 0.179 0.105 50.129
22.5162 -0.13 0.104 50.177
22.5367 -0.016 0.104 50.2252
22.5571 0.002 0.104 50.2732
22.5775 0.135 0.104 50.3212
22.5979 0.225 0.104 50.3692
22.6183 0.196 0.104 50.4173
22.6387 -0.127 0.103 50.4653
22.6591 -0.059 0.103 50.5133
22.6796 0.044 0.103 50.5616
22.7 -0.187 0.103 50.6096
22.7204 0.194 0.104 50.6577
22.7408 -0.085 0.103 50.7058
22.7612 -0.234 0.102 50.7538
22.7816 0.038 0.103 50.8019
22.8021 0.048 0.103 50.8502
22.8225 0.045 0.103 50.8983
22.8429 0.106 0.103 50.9464
22.8633 0.015 0.103 50.9945
22.8837 -0.121 0.102 51.0426
22.9041 0.05 0.102 51.0908
22.9245 0.067 0.102 51.1389
22.945 0.032 0.102 51.1873
22.9654 0.168 0.103 51.2354
22.9858 0.114 0.102 51.2836
23.0062 -0.068 0.102 51.3318
23.0266 0.074 0.102 51.3799
23.047 0.115 0.102 51.4281
23.0674 -0.152 0.101 51.4763
23.0879 0.161 0.102 51.5247
23.1083 0.187 0.102 51.5729
23.1287 0.04 0.101 51.6212
23.1491 -0.023 0.101 51.6694
23.1695 0.165 0.102 51.7176
23.1899 -0.042 0.101 51.7658
23.2103 0.296 0.102 51.8141
23.2308 -0.184 0.1 51.8626
23.2512 0.035 0.101 51.9108
23.2716 0.175 0.101 51.9591
23.292 -0.036 0.1 52.0074
23.3124 0.077 0.101 52.0557
23.3328 -0.001 0.1 52.104
23.3533 -0.1 0.1 52.1525
23.3737 0.104 0.1 52.2008
23.3941 0.002 0.1 52.2491
23.4145 0.092 0.1 52.2975
23.4349 -0.111 0.099 52.3458
23.4553 -0.045 0.099 52.3941
23.4757 0.101 0.1 52.4425
23.4962 -0.079 0.099 52.4911
23.5166 -0.079 0.099 52.5395
23.537 0.039 0.1 52.5878
23.5574 0.081 0.1 52.6362
23.5778 -0.204 0.099 52.6846
23.5982 0.189 0.1 52.733
23.6186 0.021 0.099 52.7814
23.6391 -0.016 0.099 52.8301
23.6595 0.14 0.1 52.8785
23.6799 0.236 0.1 52.927
23.7003 -0.116 0.099 52.9754
23.7207 0.008 0.099 53.0238
23.7411 0.104 0.099 53.0723
23.7615 0.066 0.099 53.1208
23.782 0.058 0.099 53.1695
23.8024 0.086 0.099 53.218
23.8228 0.012 0.099 53.2665
23.8432 -0.042 0.098 53.315
23.8636 0.073 0.099 53.3635
23.884 -0.033 0.098 53.412
23.9045 -0.087 0.098 53.4608
23.9249 0.12 0.099 53.5093
23.9453 -0.172 0.098 53.5579
23.9657 0.079 0.098 53.6064
23.9861 0.063 0.098 53.655
24.0065 -0.125 0.098 53.7035
24.0269 0.214 0.099 53.7521
24.0474 0.035 0.098 53.801
24.0678 0.011 0.098 53.8495
24.0882 0.033 0.098 53.8982
24.1086 0.154 0.098 53.9468
24.129 0.141 0.098 53.9954
24.1494 0.213 0.099 54.044
24.1698 0.183 0.098 54.0927
24.1903 -0.079 0.098 54.1416
24.2107 0.169 0.098 54.1902
24.2311 0.134 0.098 54.2389
24.2515 -0.082 0.097 54.2876
24.2719 -0.014 0.098 54.3362
24.2923 -0.093 0.097 54.3849
24.3127 -0.061 0.097 54.4336
24.3332 -0.048 0.097 54.4826
24.3536 0.097 0.098 54.5313
24.374 -0.101 0.097 54.58
24.3944 0.117 0.098 54.6288
24.4148 0.079 0.098 54.6775
24.4352 -0.137 0.097 54.7263
24.4557 -0.058 0.097 54.7753
24.4761 0.097 0.098 54.824
24.4965 0.205 0.098 54.8728
24.5169 0.052 0.097 54.9216
24.5373 0.018 0.097 54.9704
24.5577 0.035 0.097 55.0192
24.5781 -0.009 0.097 55.068
24.5986 0.011 0.097 55.1171
24.619 -0.026 0.097 55.1659
24.6394 -0.082 0.097 55.2148
24.6598 0.064 0.097 55.2636
24.6802 0.014 0.097 55.3125
24.7006 0.08 0.097 55.3614
24.721 0.329 0.098 55.4102
24.7415 0.216 0.097 55.4594
24.7619 -0.039 0.097 55.5083
24.7823 0.196 0.097 55.5572
24.8027 0.014 0.097 55.6061
24.8231 0.05 0.097 55.655
24.8435 0.271 0.097 55.7039
24.8639 0.072 0.097 55.7529
24.8844 -0.244 0.096 55.8021
24.9048 0.123 0.097 55.851
24.9252 0.202 0.097 55.9
24.9456 0.043 0.097 55.949
24.966 0.118 0.097 55.998
24.9864 -0.017 0.096 56.047
25.0069 0 0.096 56.0962
25.0273 -0.033 0.096 56.1452
25.0477 0.03 0.097 56.1943
25.0681 -0.118 0.096 56.2433
25.0885 0.024 0.097 56.2924
25.1089 0.321 0.098 56.3414
25.1293 -0.198 0.096 56.3905
25.1498 0.021 0.097 56.4398
25.1702 0.093 0.098 56.4889
25.1906 0.002 0.097 56.538
25.211 0.349 0.099 56.5871
25.2314 0.485 0.099 56.6362
25.2518 0.481 0.099 56.6853
25.2722 0.558 0.1 56.7344
25.2927 0.532 0.1 56.7838
25.3131 0.445 0.1 56.8329
25.3335 0.624 0.1 56.8821
25.3539 0.718 0.101 56.9313
25.3743 0.539 0.1 56.9804
25.3947 0.735 0.101 57.0296
25.4152 0.697 0.101 57.0791
25.4356 0.404 0.1 57.1283
25.456 0.494 0.101 57.1775
25.4764 0.586 0.101 57.2267
25.4968 0.371 0.1 57.2759
25.5172 0.605 0.101 57.3252
25.5376 0.651 0.101 57.3744
25.5581 0.328 0.101 57.4239
25.5785 0.208 0.1 57.4732
25.5989 0.218 0.1 57.5225
25.6193 -0.074 0.099 57.5718
25.6397 0.011 0.1 57.6211
25.6601 0.144 0.1 57.6704
25.6805 0.337 0.101 57.7197
25.701 0.274 0.101 57.7693
25.7214 0.415 0.101 57.8186
25.7418 0.687 0.102 57.868
25.7622 0.646 0.102 57.9173
25.7826 1.584 0.105 57.9667
25.803 2.447 0.108 58.0161
25.8234 3.815 0.112 58.0655
25.8439 5.037 0.116 58.1151
25.8643 6.339 0.119 58.1645
25.8847 7.946 0.124 58.2139
25.9051 10.989 0.132 58.2634
25.9255 13.823 0.138 58.3128
25.9459 14.479 0.14 58.3622
25.9664 13.742 0.138 58.4119
25.9868 10.695 0.131 58.4614
26.0072 7.547 0.123 58.5109
26.0276 6.191 0.119 58.5604
26.048 5.815 0.118 58.6099
26.0684 6.167 0.119 58.6594
26.0888 7.32 0.123 58.7089
26.1093 7.216 0.122 58.7587
26.1297 5.842 0.119 58.8082
26.1501 3.944 0.113 58.8578
26.1705 2.33 0.109 58.9073
26.1909 1.227 0.105 58.9569
26.2113 0.508 0.103 59.0065
26.2317 0.214 0.102 59.056
26.2522 -0.179 0.101 59.1059
26.2726 -0.101 0.101 59.1555
26.293 0.214 0.102 59.2051
26.3134 -0.223 0.101 59.2547
26.3338 0.217 0.102 59.3044
26.3542 0.26 0.103 59.354
26.3746 0.179 0.103 59.4037
26.3951 0.662 0.104 59.4536
26.4155 1.109 0.106 59.5033
26.4359 0.978 0.105 59.553
26.4563 1.431 0.107 59.6027
26.4767 1.889 0.108 59.6524
26.4971 2.01 0.109 59.7021
26.5176 2.469 0.11 59.7521
26.538 3.088 0.112 59.8018
26.5584 3.181 0.112 59.8516
26.5788 3.932 0.114 59.9013
26.5992 4.382 0.116 59.9511
26.6196 4.685 0.117 60.0009
26.64 5.25 0.118 60.0507
26.6605 6.142 0.121 60.1007
26.6809 6.658 0.122 60.1505
26.7013 7.04 0.123 60.2003
26.7217 7.829 0.125 60.2502
26.7421 8.251 0.127 60.3
26.7625 8.674 0.128 60.3499
26.7829 9.558 0.13 60.3997
26.8034 9.925 0.131 60.4499
26.8238 10.454 0.132 60.4997
26.8442 11.746 0.135 60.5496
26.8646 12.228 0.137 60.5996
26.885 11.942 0.136 60.6495
26.9054 12.719 0.138 60.6994
26.9258 13.624 0.14 60.7493
26.9463 13.288 0.139 60.7995
26.9667 14.227 0.141 60.8495
26.9871 15.044 0.143 60.8995
27.0075 14.201 0.141 60.9494
27.0279 14.838 0.143 60.9994
27.0483 15.295 0.144 61.0494
27.0688 14.978 0.143 61.0997
27.0892 15.303 0.144 61.1497
27.1096 16.135 0.146 61.1998
27.13 15.169 0.144 61.2498
27.1504 15.663 0.145 61.2999
27.1708 16.035 0.146 61.3499
27.1912 14.616 0.142 61.4
27.2117 14.529 0.142 61.4504
27.2321 15.276 0.144 61.5005
27.2525 14.465 0.142 61.5506
27.2729 13.7 0.14 61.6007
27.2933 13.303 0.139 61.6508
27.3137 12.408 0.137 61.701
27.3341 12.146 0.137 61.7511
27.3546 12.318 0.137 61.8015
27.375 11.303 0.134 61.8517
27.3954 10.812 0.133 61.9019
27.4158 10.581 0.133 61.9521
27.4362 9.72 0.131 62.0023
27.4566 8.961 0.129 62.0525
27.477 8.726 0.128 62.1028
27.4975 7.602 0.125 62.1533
27.5179 7.079 0.124 62.2035
27.5383 7.159 0.124 62.2538
27.5587 6.278 0.122 62.304
27.5791 5.824 0.12 62.3543
27.5995 5.886 0.12 62.4046
27.62 5.115 0.118 62.4552
27.6404 4.411 0.116 62.5055
27.6608 4.676 0.117 62.5558
27.6812 4.128 0.115 62.6062
27.7016 3.738 0.114 62.6565
27.722 3.636 0.114 62.7069
27.7424 3.268 0.113 62.7573
27.7629 3.148 0.112 62.8079
27.7833 3.4 0.113 62.8583
27.8037 3.4 0.113 62.9087
27.8241 3.182 0.112 62.9592
27.8445 3.127 0.112 63.0096
27.8649 2.883 0.111 63.06
27.8853 2.635 0.111 63.1105
27.9058 2.711 0.111 63.1612
27.9262 2.565 0.11 63.2117
27.9466 2.53 0.11 63.2622
27.967 2.867 0.111 63.3127
27.9874 2.733 0.111 63.3632
28.0078 2.528 0.11 63.4137
28.0282 2.762 0.111 63.4643
28.0487 2.811 0.111 63.5151
28.0691 2.53 0.11 63.5656
28.0895 2.513 0.11 63.6162
28.1099 2.881 0.111 63.6668
28.1303 2.702 0.11 63.7174
28.1507 3.52 0.112 63.768
28.1712 4.702 0.116 63.8189
28.1916 6.074 0.119 63.8695
28.212 9.096 0.127 63.9201
28.2324 13.225 0.137 63.9708
28.2528 18.3 0.149 64.0214
28.2732 22.993 0.159 64.0721
28.2936 23.396 0.159 64.1228
28.3141 19.178 0.15 64.1738
28.3345 14.898 0.141 64.2245
28.3549 12.151 0.134 64.2752
28.3753 12.097 0.134 64.3259
28.3957 15.422 0.142 64.3767
28.4161 21.677 0.155 64.4274
28.4365 28.555 0.169 64.4782
28.457 34.508 0.18 64.5293
28.4774 33.43 0.178 64.58
28.4978 25.591 0.163 64.6309
28.5182 16.849 0.144 64.6817
28.5386 10.864 0.13 64.7325
28.559 7.862 0.122 64.7833
28.5794 7.632 0.122 64.8342
28.5999 9.311 0.126 64.8853
28.6203 11.329 0.131 64.9362
28.6407 12.772 0.134 64.9871
28.6611 11.113 0.13 65.038
28.6815 7.633 0.121 65.0889
28.7019 4.721 0.113 65.1398
28.7224 2.12 0.105 65.191
28.7428 1.024 0.101 65.242
28.7632 0.462 0.099 65.293
28.7836 0.364 0.099 65.3439
28.804 0.139 0.098 65.3949
28.8244 -0.103 0.097 65.4459
28.8448 0.016 0.097 65.4969
28.8653 -0.022 0.097 65.5482
28.8857 0 0.097 65.5992
28.9061 0.006 0.097 65.6503
28.9265 -0.104 0.096 65.7014
28.9469 -0.166 0.096 65.7524
28.9673 0.022 0.097 65.8035
28.9877 0.018 0.097 65.8546
29.0082 0.063 0.097 65.906
29.0286 0.226 0.097 65.9571
29.049 0.405 0.098 66.0083
29.0694 0.144 0.097 66.0594
29.0898 0.416 0.098 66.1106
29.1102 0.715 0.099 66.1617
29.1306 0.615 0.099 66.2129
29.1511 0.7 0.099 66.2644
29.1715 0.62 0.099 66.3156
29.1919 0.64 0.099 66.3668
29.2123 0.765 0.099 66.4181
29.2327 0.871 0.1 66.4693
29.2531 1.011 0.1 66.5206
29.2736 1.186 0.101 66.5721
29.294 1.246 0.101 66.6234
29.3144 1.047 0.1 66.6747
29.3348 1.067 0.1 66.726
29.3552 1.15 0.101 66.7773
29.3756 0.943 0.1 66.8287
29.396 0.942 0.1 66.88
29.4165 0.836 0.099 66.9316
29.4369 0.639 0.099 66.983
29.4573 0.768 0.099 67.0344
29.4777 0.73 0.099 67.0858
29.4981 0.729 0.099 67.1372
29.5185 0.954 0.1 67.1886
29.5389 1.165 0.1 67.2401
29.5594 1.079 0.1 67.2918
29.5798 1.027 0.1 67.3433
29.6002 1.219 0.1 67.3947
29.6206 1.401 0.101 67.4462
29.641 2.047 0.103 67.4978
29.6614 2.639 0.105 67.5493
29.6818 3.503 0.107 67.6008
29.7023 5.205 0.112 67.6526
29.7227 7.839 0.12 67.7042
29.7431 11.239 0.129 67.7557
29.7635 14.81 0.137 67.8073
29.7839 16.013 0.14 67.8589
29.8043 13.676 0.135 67.9105
29.8248 10.5 0.127 67.9624
29.8452 7.093 0.117 68.0141
29.8656 5.083 0.112 68.0657
29.886 4.588 0.11 68.1174
29.9064 5.164 0.112 68.169
29.9268 5.885 0.114 68.2207
29.9472 7.712 0.119 68.2724
29.9677 8.202 0.12 68.3244
29.9881 6.848 0.116 68.3761
30.0085 5 0.111 68.4279
30.0289 3.231 0.106 68.4797
30.0493 1.659 0.101 68.5314
30.0697 0.918 0.098 68.5832
30.0901 0.748 0.097 68.635
30.1106 0.482 0.096 68.6871
30.131 0.313 0.096 68.7389
30.1514 0.345 0.096 68.7907
30.1718 -0.07 0.094 68.8426
30.1922 0.075 0.095 68.8945
30.2126 0.086 0.094 68.9463
30.233 0.104 0.094 68.9982
30.2535 0.003 0.094 69.0504
30.2739 0.065 0.094 69.1023
30.2943 0.178 0.094 69.1543
30.3147 -0.088 0.094 69.2062
30.3351 0.02 0.094 69.2582
30.3555 0.107 0.094 69.3101
30.376 0.005 0.094 69.3624
30.3964 -0.064 0.094 69.4144
30.4168 -0.004 0.094 69.4664
30.4372 -0.214 0.093 69.5185
30.4576 0.017 0.094 69.5705
30.478 -0.004 0.094 69.6226
30.4984 -0.052 0.094 69.6746
30.5189 0.109 0.094 69.727
30.5393 0.197 0.095 69.7791
30.5597 0.067 0.094 69.8312
30.5801 0.172 0.095 69.8833
30.6005 0.297 0.095 69.9355
30.6209 0.132 0.095 69.9876
30.6413 0.315 0.095 70.0398
30.6618 0.344 0.095 70.0922
30.6822 0.172 0.095 70.1444
30.7026 0.337 0.095 70.1967
30.723 0.56 0.096 70.2489
30.7434 0.627 0.097 70.3011
30.7638 0.879 0.097 70.3534
30.7842 1.156 0.098 70.4057
30.8047 0.991 0.098 70.4582
30.8251 1.139 0.098 70.5105
30.8455 1.387 0.099 70.5628
30.8659 1.348 0.099 70.6151
30.8863 1.547 0.1 70.6675
30.9067 1.8 0.1 70.7198
30.9272 1.718 0.1 70.7725
30.9476 1.984 0.101 70.8249
30.968 2.149 0.102 70.8773
30.9884 2.057 0.101 70.9297
31.0088 2.398 0.102 70.9821
31.0292 2.685 0.103 71.0345
31.0496 2.747 0.103 71.087
31.0701 2.759 0.103 71.1397
31.0905 3.053 0.104 71.1922
31.1109 3.269 0.105 71.2447
31.1313 3.249 0.105 71.2972
31.1517 3.496 0.106 71.3498
31.1721 3.618 0.106 71.4023
31.1925 3.61 0.106 71.4549
31.213 3.888 0.107 71.5077
31.2334 3.681 0.106 71.5603
31.2538 3.618 0.106 71.6129
31.2742 3.849 0.107 71.6655
31.2946 4.003 0.107 71.7182
31.315 3.994 0.107 71.7708
31.3354 4.169 0.107 71.8235
31.3559 4.324 0.108 71.8764
31.3763 3.926 0.107 71.9291
31.3967 4.111 0.107 71.9818
31.4171 4.265 0.108 72.0345
31.4375 3.983 0.107 72.0873
31.4579 3.805 0.106 72.14
31.4784 3.649 0.105 72.1931
31.4988 3.371 0.105 72.2459
31.5192 3.518 0.105 72.2987
31.5396 3.548 0.105 72.3515
31.56 3.081 0.103 72.4043
31.5804 3.005 0.103 72.4571
31.6008 2.892 0.103 72.51
31.6213 2.629 0.102 72.5631
31.6417 2.444 0.101 72.616
31.6621 2.482 0.101 72.6689
31.6825 1.942 0.099 72.7219
31.7029 1.923 0.099 72.7748
31.7233 1.808 0.099 72.8277
31.7437 1.564 0.098 72.8807
31.7642 1.449 0.097 72.934
31.7846 1.3 0.097 72.987
31.805 1.068 0.096 73.04
31.8254 0.747 0.095 73.093
31.8458 0.921 0.095 73.146
31.8662 0.721 0.094 73.1991
31.8866 0.589 0.094 73.2522
31.9071 0.452 0.093 73.3055
31.9275 0.247 0.092 73.3586
31.9479 0.108 0.092 73.4118
31.9683 0.19 0.092 73.4649
31.9887 0.133 0.092 73.5181
32.0091 0.052 0.091 73.5712
32.0296 0.199 0.092 73.6247
32.05 -0.08 0.091 73.6779
32.0704 -0.118 0.09 73.7311
32.0908 0.031 0.091 73.7843
32.1112 -0.123 0.09 73.8376
32.1316 -0.018 0.09 73.8908
32.152 0.009 0.09 73.9441
32.1725 -0.09 0.09 73.9977
32.1929 0.101 0.091 74.051
32.2133 -0.152 0.09 74.1043
32.2337 -0.198 0.089 74.1577
32.2541 -0.089 0.09 74.211
32.2745 0.125 0.091 74.2644
32.2949 0.072 0.09 74.3178
32.3154 0.158 0.091 74.3715
32.3358 -0.018 0.09 74.4249
32.3562 -0.027 0.09 74.4783
32.3766 0.155 0.091 74.5318
32.397 0.182 0.091 74.5853
32.4174 -0.026 0.09 74.6388
32.4378 -0.036 0.09 74.6923
32.4583 0.105 0.091 74.7461
32.4787 0.078 0.091 74.7996
32.4991 0.158 0.091 74.8532
32.5195 0.256 0.091 74.9067
32.5399 0.267 0.092 74.9603
32.5603 0.056 0.091 75.0139
32.5808 0.124 0.091 75.0678
32.6012 0.186 0.091 75.1214
32.6216 0.292 0.092 75.1751
32.642 0.254 0.092 75.2288
32.6624 0.313 0.092 75.2825
32.6828 0.38 0.092 75.3362
32.7032 0.531 0.093 75.3899
32.7237 0.387 0.092 75.4439
32.7441 0.393 0.092 75.4976
32.7645 0.725 0.094 75.5514
32.7849 0.582 0.093 75.6052
32.8053 0.533 0.093 75.659
32.8257 0.675 0.093 75.7128
32.8461 0.933 0.094 75.7667
32.8666 0.564 0.093 75.8208
32.887 0.859 0.094 75.8746
32.9074 0.918 0.094 75.9285
32.9278 0.836 0.094 75.9824
32.9482 1.108 0.095 76.0364
32.9686 1.217 0.095 76.0903
32.989 1.229 0.095 76.1443
33.0095 1.372 0.096 76.1985
33.0299 1.759 0.097 76.2525
33.0503 1.997 0.098 76.3065
33.0707 2.662 0.1 76.3605
33.0911 3.924 0.104 76.4146
33.1115 4.48 0.106 76.4686
33.132 5.405 0.109 76.523
33.1524 5.331 0.108 76.5771
33.1728 4.465 0.106 76.6312
33.1932 3.876 0.104 76.6853
33.2136 3.448 0.103 76.7394
33.234 3.474 0.103 76.7936
33.2544 4.036 0.104 76.8478
33.2749 4.965 0.107 76.9023
33.2953 5.201 0.108 76.9565
33.3157 5.716 0.109 77.0107
33.3361 5.628 0.109 77.065
33.3565 5.419 0.108 77.1192
33.3769 5.694 0.109 77.1735
33.3973 6.29 0.111 77.2278
33.4178 7.013 0.113 77.2824
33.4382 7.714 0.115 77.3367
33.4586 8.401 0.117 77.3911
33.479 7.885 0.115 77.4455
33.4994 7.358 0.114 77.4999
33.5198 6.317 0.111 77.5543
33.5402 5.239 0.107 77.6087
33.5607 4.033 0.104 77.6634
33.5811 3.55 0.102 77.7179
33.6015 3.268 0.101 77.7724
33.6219 3.319 0.101 77.8269
33.6423 3.639 0.102 77.8814
33.6627 3.304 0.101 77.9359
33.6832 3.247 0.101 77.9907
33.7036 2.825 0.099 78.0453
33.724 2.112 0.097 78.0999
33.7444 1.83 0.096 78.1545
33.7648 1.501 0.095 78.2091
33.7852 1.035 0.093 78.2638
33.8056 0.507 0.091 78.3185
33.8261 0.271 0.09 78.3734
33.8465 0.228 0.09 78.4281
33.8669 0.096 0.089 78.4828
33.8873 0.123 0.089 78.5376
33.9077 0.169 0.089 78.5923
33.9281 -0.092 0.088 78.6471
33.9485 -0.124 0.088 78.7019
33.969 0.088 0.089 78.757
33.9894 -0.067 0.088 78.8118
34.0098 0.075 0.089 78.8666
34.0302 0.233 0.089 78.9215
34.0506 -0.106 0.088 78.9764
34.071 0 0.089 79.0313
34.0915 0.262 0.09 79.0865
34.1119 0.002 0.089 79.1414
34.1323 0.176 0.089 79.1964
34.1527 0.012 0.089 79.2514
34.1731 -0.093 0.089 79.3064
34.1935 0.098 0.089 79.3614
34.2139 0.13 0.09 79.4164
34.2344 0.024 0.089 79.4717
34.2548 0.049 0.089 79.5268
34.2752 0.02 0.089 79.5819
34.2956 -0.089 0.089 79.637
34.316 0.062 0.09 79.6921
34.3364 0.186 0.091 79.7473
34.3568 -0.008 0.09 79.8025
34.3773 0.083 0.091 79.8579
34.3977 0.153 0.091 79.9131
34.4181 -0.143 0.09 79.9684
34.4385 0.096 0.091 80.0236
34.4589 0.006 0.091 80.0789
34.4793 -0.038 0.091 80.1341
34.4997 -0.009 0.091 80.1895
34.5202 0.094 0.092 80.245
34.5406 -0.035 0.092 80.3004
34.561 -0.061 0.092 80.3558
34.5814 -0.044 0.092 80.4111
34.6018 0.028 0.093 80.4665
34.6171 0 0.093 80.5081