File: Data/XRD/NMC_3_GM_4tt35tt_05ts_6ks_bg_subtracted.xye
'Id: "" Comment: "" Operator: "Lab Manager" Anode: "Mo" Scantype: "Coupled TwoTheta/Theta" TimePerStep: "1536" X: "9999" Y: "9999" Z: "9999"
4.0000 0.000 0.268
4.0204 0.821 0.269
4.0408 -0.430 0.267
4.0612 1.784 0.270
4.0817 2.711 0.270
4.1021 2.323 0.270
4.1225 4.491 0.272
4.1429 4.817 0.272
4.1633 4.940 0.272
4.1837 6.171 0.274
4.2041 7.172 0.275
4.2246 7.339 0.275
4.2450 8.514 0.276
4.2654 9.912 0.277
4.2858 9.428 0.277
4.3062 11.123 0.278
4.3266 12.398 0.280
4.3471 12.496 0.280
4.3675 13.976 0.281
4.3879 15.353 0.283
4.4083 15.837 0.283
4.4287 16.551 0.284
4.4491 18.177 0.285
4.4695 18.889 0.286
4.4900 19.597 0.286
4.5104 21.692 0.289
4.5308 22.776 0.290
4.5512 22.976 0.290
4.5716 24.894 0.292
4.5920 26.340 0.293
4.6124 26.483 0.293
4.6329 28.656 0.295
4.6533 29.065 0.296
4.6737 29.383 0.296
4.6941 31.986 0.298
4.7145 32.813 0.299
4.7349 32.636 0.299
4.7553 36.497 0.303
4.7758 36.243 0.302
4.7962 37.156 0.303
4.8166 40.103 0.306
4.8370 41.203 0.307
4.8574 40.876 0.306
4.8778 43.983 0.310
4.8983 45.288 0.311
4.9187 44.730 0.310
4.9391 48.104 0.313
4.9595 48.954 0.314
4.9799 49.247 0.314
5.0003 52.626 0.317
5.0207 53.322 0.318
5.0412 53.405 0.318
5.0616 56.319 0.321
5.0820 57.062 0.321
5.1024 56.492 0.320
5.1228 60.537 0.324
5.1432 61.538 0.325
5.1636 61.084 0.324
5.1841 64.062 0.327
5.2045 64.997 0.328
5.2249 64.414 0.327
5.2453 67.650 0.330
5.2657 68.421 0.331
5.2861 67.837 0.330
5.3065 70.011 0.332
5.3270 71.670 0.333
5.3474 71.367 0.333
5.3678 73.466 0.335
5.3882 74.997 0.336
5.4086 74.215 0.335
5.4290 75.835 0.337
5.4495 77.303 0.338
5.4699 77.038 0.337
5.4903 78.029 0.338
5.5107 79.411 0.339
5.5311 78.933 0.339
5.5515 78.730 0.338
5.5719 81.670 0.341
5.5924 80.653 0.340
5.6128 80.248 0.339
5.6332 81.861 0.340
5.6536 82.145 0.341
5.6740 82.028 0.340
5.6944 83.578 0.342
5.7148 82.557 0.340
5.7353 82.745 0.340
5.7557 83.866 0.341
5.7761 82.724 0.340
5.7965 83.054 0.340
5.8169 83.964 0.341
5.8373 82.603 0.339
5.8577 81.795 0.338
5.8782 84.283 0.340
5.8986 83.161 0.339
5.9190 80.933 0.337
5.9394 82.682 0.338
5.9598 81.948 0.337
5.9802 80.093 0.335
6.0007 80.792 0.336
6.0211 80.375 0.335
6.0415 79.039 0.334
6.0619 80.154 0.335
6.0823 79.327 0.334
6.1027 77.209 0.331
6.1231 78.844 0.333
6.1436 77.798 0.331
6.1640 75.337 0.329
6.1844 77.058 0.330
6.2048 75.464 0.328
6.2252 72.616 0.325
6.2456 75.288 0.328
6.2660 73.255 0.326
6.2865 71.135 0.323
6.3069 73.114 0.325
6.3273 71.075 0.323
6.3477 68.929 0.320
6.3681 70.452 0.322
6.3885 69.115 0.320
6.4089 67.376 0.318
6.4294 67.235 0.318
6.4498 66.409 0.317
6.4702 65.125 0.315
6.4906 65.271 0.315
6.5110 64.625 0.314
6.5314 63.201 0.312
6.5519 62.969 0.312
6.5723 62.086 0.311
6.5927 61.067 0.309
6.6131 60.670 0.309
6.6335 59.677 0.307
6.6539 58.363 0.306
6.6743 58.543 0.306
6.6948 57.717 0.305
6.7152 56.528 0.303
6.7356 55.327 0.302
6.7560 54.850 0.301
6.7764 54.149 0.300
6.7968 52.722 0.298
6.8172 52.939 0.298
6.8377 51.700 0.296
6.8581 50.746 0.295
6.8785 50.469 0.294
6.8989 49.342 0.293
6.9193 48.415 0.292
6.9397 48.912 0.292
6.9601 47.129 0.290
6.9806 45.959 0.288
7.0010 47.034 0.289
7.0214 45.193 0.287
7.0418 43.889 0.285
7.0622 44.857 0.286
7.0826 43.346 0.284
7.1031 42.032 0.282
7.1235 42.394 0.282
7.1439 41.519 0.281
7.1643 39.742 0.278
7.1847 40.259 0.279
7.2051 39.348 0.277
7.2255 37.398 0.275
7.2460 38.650 0.276
7.2664 37.580 0.274
7.2868 36.015 0.272
7.3072 36.215 0.272
7.3276 35.843 0.271
7.3480 34.288 0.269
7.3684 34.355 0.269
7.3889 33.576 0.268
7.4093 32.338 0.266
7.4297 32.775 0.266
7.4501 31.909 0.265
7.4705 30.497 0.263
7.4909 30.774 0.263
7.5113 30.290 0.262
7.5318 29.045 0.260
7.5522 29.448 0.260
7.5726 29.160 0.259
7.5930 27.595 0.257
7.6134 27.229 0.256
7.6338 27.138 0.256
7.6543 26.227 0.254
7.6747 25.648 0.253
7.6951 25.807 0.253
7.7155 24.389 0.251
7.7359 24.438 0.251
7.7563 23.789 0.250
7.7767 23.497 0.249
7.7972 22.432 0.247
7.8176 22.302 0.247
7.8380 21.560 0.245
7.8584 20.717 0.244
7.8788 20.775 0.243
7.8992 19.604 0.241
7.9196 19.147 0.240
7.9401 19.624 0.241
7.9605 19.185 0.240
7.9809 18.001 0.238
8.0013 18.254 0.238
8.0217 17.533 0.236
8.0421 16.452 0.235
8.0625 16.643 0.234
8.0830 16.225 0.233
8.1034 15.090 0.231
8.1238 15.393 0.232
8.1442 14.540 0.230
8.1646 13.661 0.228
8.1850 14.892 0.230
8.2055 14.517 0.229
8.2259 14.125 0.228
8.2463 15.924 0.230
8.2667 16.065 0.230
8.2871 15.856 0.229
8.3075 17.595 0.231
8.3279 18.732 0.232
8.3484 19.673 0.233
8.3688 23.623 0.238
8.3892 27.993 0.244
8.4096 33.258 0.250
8.4300 45.050 0.265
8.4504 61.576 0.284
8.4708 80.926 0.305
8.4913 86.846 0.311
8.5117 62.383 0.284
8.5321 48.675 0.268
8.5525 35.487 0.251
8.5729 17.548 0.226
8.5933 10.580 0.215
8.6138 9.109 0.212
8.6342 7.522 0.209
8.6546 6.228 0.207
8.6750 5.848 0.206
8.6954 5.476 0.205
8.7158 4.917 0.203
8.7362 4.768 0.203
8.7567 4.046 0.201
8.7771 3.574 0.200
8.7975 3.517 0.199
8.8179 3.242 0.198
8.8383 3.017 0.197
8.8587 2.612 0.196
8.8791 2.833 0.196
8.8996 2.292 0.195
8.9200 2.456 0.194
8.9404 2.617 0.194
8.9608 1.821 0.192
8.9812 1.341 0.191
9.0016 1.890 0.191
9.0220 1.205 0.190
9.0425 0.995 0.189
9.0629 1.391 0.189
9.0833 1.166 0.188
9.1037 0.609 0.187
9.1241 1.059 0.187
9.1445 0.598 0.185
9.1650 0.402 0.185
9.1854 0.824 0.185
9.2058 0.506 0.184
9.2262 0.043 0.182
9.2466 0.417 0.182
9.2670 0.028 0.181
9.2874 0.107 0.181
9.3079 0.667 0.181
9.3283 0.378 0.180
9.3487 -0.247 0.178
9.3691 0.284 0.179
9.3895 0.173 0.178
9.4099 -0.158 0.177
9.4303 0.349 0.177
9.4508 0.329 0.177
9.4712 -0.296 0.175
9.4916 0.673 0.176
9.5120 -0.001 0.174
9.5324 -0.472 0.173
9.5528 0.459 0.174
9.5732 0.216 0.173
9.5937 -0.166 0.172
9.6141 0.483 0.172
9.6345 0.392 0.172
9.6549 -0.165 0.170
9.6753 0.103 0.170
9.6957 -0.067 0.169
9.7162 -0.398 0.168
9.7366 0.217 0.169
9.7570 -0.024 0.168
9.7774 -0.062 0.167
9.7978 -0.066 0.167
9.8182 -0.215 0.166
9.8386 -0.083 0.166
9.8591 -0.256 0.165
9.8795 0.171 0.165
9.8999 -0.084 0.164
9.9203 -0.177 0.164
9.9407 0.012 0.164
9.9611 -0.039 0.163
9.9815 -0.338 0.162
10.0020 0.172 0.163
10.0224 -0.007 0.162
10.0428 -0.189 0.161
10.0632 -0.110 0.161
10.0836 -0.009 0.161
10.1040 -0.160 0.160
10.1244 0.197 0.161
10.1449 -0.018 0.160
10.1653 -0.082 0.159
10.1857 0.131 0.160
10.2061 0.410 0.160
10.2265 -0.631 0.157
10.2469 0.103 0.159
10.2674 0.103 0.158
10.2878 -0.143 0.158
10.3082 -0.052 0.158
10.3286 -0.102 0.157
10.3490 -0.259 0.157
10.3694 0.267 0.158
10.3898 0.134 0.157
10.4103 -0.065 0.157
10.4307 0.037 0.157
10.4511 0.035 0.157
10.4715 -0.310 0.156
10.4919 0.186 0.157
10.5123 0.145 0.156
10.5327 -0.207 0.155
10.5532 0.329 0.156
10.5736 0.068 0.156
10.5940 -0.250 0.155
10.6144 -0.096 0.155
10.6348 0.106 0.156
10.6552 -0.340 0.155
10.6756 0.086 0.155
10.6961 0.087 0.155
10.7165 -0.143 0.155
10.7369 -0.001 0.155
10.7573 0.325 0.156
10.7777 -0.550 0.154
10.7981 0.075 0.155
10.8186 0.041 0.155
10.8390 -0.036 0.155
10.8594 -0.060 0.155
10.8798 0.208 0.155
10.9002 -0.327 0.154
10.9206 0.387 0.156
10.9410 -0.127 0.154
10.9615 -0.089 0.155
10.9819 -0.111 0.155
11.0023 0.026 0.155
11.0227 -0.261 0.154
11.0431 -0.107 0.155
11.0635 0.461 0.156
11.0839 0.026 0.155
11.1044 -0.087 0.155
11.1248 0.157 0.155
11.1452 -0.043 0.155
11.1656 0.061 0.155
11.1860 0.364 0.156
11.2064 0.349 0.156
11.2268 0.063 0.155
11.2473 0.240 0.156
11.2677 0.262 0.156
11.2881 0.000 0.155
11.3085 0.311 0.156
11.3289 0.582 0.156
11.3493 0.056 0.155
11.3698 -0.047 0.155
11.3902 0.631 0.157
11.4106 0.184 0.156
11.4310 0.950 0.157
11.4514 0.598 0.157
11.4718 0.224 0.156
11.4922 0.632 0.157
11.5127 0.559 0.157
11.5331 0.265 0.156
11.5535 0.929 0.158
11.5739 0.853 0.157
11.5943 0.596 0.157
11.6147 1.159 0.158
11.6351 1.078 0.158
11.6556 0.893 0.158
11.6760 1.249 0.158
11.6964 1.230 0.158
11.7168 0.946 0.158
11.7372 1.223 0.158
11.7576 1.537 0.159
11.7780 1.129 0.158
11.7985 1.643 0.159
11.8189 1.615 0.159
11.8393 1.329 0.159
11.8597 1.792 0.159
11.8801 1.434 0.159
11.9005 1.152 0.158
11.9210 2.117 0.160
11.9414 2.004 0.160
11.9618 1.589 0.159
11.9822 1.614 0.159
12.0026 2.374 0.161
12.0230 2.306 0.161
12.0434 2.155 0.160
12.0639 2.382 0.161
12.0843 2.011 0.160
12.1047 2.368 0.161
12.1251 2.640 0.161
12.1455 2.569 0.161
12.1659 2.211 0.160
12.1863 2.860 0.162
12.2068 2.730 0.161
12.2272 2.623 0.161
12.2476 2.954 0.162
12.2680 2.786 0.161
12.2884 2.608 0.161
12.3088 2.986 0.162
12.3292 3.417 0.162
12.3497 2.615 0.161
12.3701 2.991 0.162
12.3905 3.029 0.162
12.4109 2.904 0.161
12.4313 3.745 0.163
12.4517 3.359 0.162
12.4722 3.073 0.162
12.4926 3.505 0.162
12.5130 3.441 0.162
12.5334 2.928 0.161
12.5538 3.570 0.162
12.5742 3.288 0.162
12.5946 3.044 0.161
12.6151 3.642 0.162
12.6355 3.451 0.162
12.6559 3.197 0.161
12.6763 3.681 0.162
12.6967 4.127 0.163
12.7171 3.584 0.162
12.7375 3.842 0.163
12.7580 3.648 0.162
12.7784 3.555 0.162
12.7988 4.057 0.163
12.8192 3.859 0.162
12.8396 3.417 0.161
12.8600 4.074 0.163
12.8804 3.955 0.162
12.9009 3.382 0.161
12.9213 3.932 0.162
12.9417 4.030 0.162
12.9621 3.498 0.161
12.9825 3.882 0.162
13.0029 3.735 0.162
13.0234 3.143 0.160
13.0438 3.789 0.162
13.0642 3.905 0.162
13.0846 3.304 0.160
13.1050 3.709 0.161
13.1254 3.700 0.161
13.1458 3.698 0.161
13.1663 3.712 0.161
13.1867 3.678 0.161
13.2071 3.610 0.161
13.2275 3.306 0.160
13.2479 3.615 0.160
13.2683 3.471 0.160
13.2887 3.401 0.160
13.3092 3.579 0.160
13.3296 3.646 0.160
13.3500 3.252 0.159
13.3704 3.720 0.160
13.3908 3.494 0.160
13.4112 2.917 0.158
13.4316 3.625 0.160
13.4521 3.316 0.159
13.4725 3.240 0.159
13.4929 3.465 0.159
13.5133 3.425 0.159
13.5337 2.921 0.158
13.5541 3.183 0.158
13.5746 3.122 0.158
13.5950 2.939 0.157
13.6154 3.046 0.158
13.6358 2.956 0.157
13.6562 2.663 0.157
13.6766 2.834 0.157
13.6970 2.987 0.157
13.7175 2.501 0.156
13.7379 2.897 0.157
13.7583 2.409 0.155
13.7787 2.548 0.156
13.7991 2.797 0.156
13.8195 2.675 0.156
13.8399 2.175 0.154
13.8604 2.568 0.155
13.8808 2.680 0.155
13.9012 2.107 0.154
13.9216 2.262 0.154
13.9420 2.394 0.154
13.9624 1.939 0.153
13.9828 2.004 0.153
14.0033 2.222 0.153
14.0237 1.912 0.153
14.0441 1.819 0.152
14.0645 2.183 0.153
14.0849 1.683 0.152
14.1053 2.095 0.152
14.1258 2.009 0.152
14.1462 1.521 0.151
14.1666 1.804 0.151
14.1870 1.802 0.151
14.2074 1.568 0.151
14.2278 1.835 0.151
14.2482 1.658 0.151
14.2687 1.419 0.150
14.2891 1.510 0.150
14.3095 1.149 0.149
14.3299 1.291 0.149
14.3503 1.169 0.149
14.3707 1.039 0.148
14.3911 1.084 0.148
14.4116 1.047 0.148
14.4320 0.939 0.147
14.4524 1.352 0.148
14.4728 0.929 0.147
14.4932 1.009 0.147
14.5136 0.591 0.146
14.5340 0.734 0.146
14.5545 1.028 0.147
14.5749 0.843 0.146
14.5953 0.502 0.145
14.6157 1.087 0.146
14.6361 0.951 0.146
14.6565 0.565 0.145
14.6770 0.588 0.144
14.6974 0.642 0.144
14.7178 0.547 0.144
14.7382 0.758 0.144
14.7586 0.430 0.143
14.7790 0.124 0.142
14.7994 0.664 0.143
14.8199 0.403 0.143
14.8403 -0.039 0.141
14.8607 0.309 0.142
14.8811 0.187 0.142
14.9015 -0.175 0.141
14.9219 0.261 0.141
14.9423 0.466 0.142
14.9628 -0.046 0.140
14.9832 0.209 0.141
15.0036 0.150 0.140
15.0240 -0.059 0.139
15.0444 0.035 0.139
15.0648 0.194 0.140
15.0852 -0.126 0.139
15.1057 0.011 0.139
15.1261 0.141 0.139
15.1465 0.027 0.138
15.1669 0.121 0.138
15.1873 0.509 0.139
15.2077 0.105 0.138
15.2282 0.220 0.138
15.2486 0.110 0.137
15.2690 -0.122 0.136
15.2894 0.257 0.137
15.3098 0.268 0.137
15.3302 -0.265 0.136
15.3506 -0.013 0.136
15.3711 0.131 0.136
15.3915 -0.200 0.135
15.4119 -0.191 0.135
15.4323 0.069 0.135
15.4527 0.003 0.135
15.4731 -0.162 0.134
15.4935 -0.198 0.134
15.5140 0.034 0.134
15.5344 0.106 0.134
15.5548 0.135 0.134
15.5752 -0.178 0.133
15.5956 -0.022 0.134
15.6160 0.148 0.134
15.6364 0.028 0.133
15.6569 0.085 0.133
15.6773 -0.124 0.133
15.6977 0.014 0.133
15.7181 -0.134 0.133
15.7385 -0.035 0.133
15.7589 -0.041 0.133
15.7794 0.205 0.133
15.7998 0.523 0.134
15.8202 0.447 0.134
15.8406 0.182 0.133
15.8610 0.722 0.135
15.8814 0.389 0.134
15.9018 0.277 0.134
15.9223 0.739 0.135
15.9427 0.666 0.135
15.9631 0.460 0.134
15.9835 0.638 0.135
16.0039 0.822 0.135
16.0243 0.827 0.135
16.0447 1.402 0.137
16.0652 1.578 0.137
16.0856 1.390 0.137
16.1060 1.715 0.137
16.1264 1.323 0.137
16.1468 0.981 0.136
16.1672 1.266 0.136
16.1876 1.014 0.136
16.2081 0.702 0.135
16.2285 0.976 0.136
16.2489 0.684 0.135
16.2693 0.682 0.135
16.2897 1.061 0.136
16.3101 1.239 0.136
16.3306 1.337 0.137
16.3510 1.855 0.138
16.3714 2.517 0.139
16.3918 3.501 0.142
16.4122 5.651 0.146
16.4326 8.177 0.152
16.4530 12.589 0.161
16.4735 20.897 0.177
16.4939 32.121 0.197
16.5143 44.052 0.215
16.5347 47.617 0.221
16.5551 35.849 0.203
16.5755 24.358 0.183
16.5959 22.317 0.180
16.6164 24.975 0.184
16.6368 23.974 0.183
16.6572 16.115 0.168
16.6776 8.271 0.152
16.6980 4.051 0.143
16.7184 2.261 0.138
16.7388 1.566 0.137
16.7593 1.311 0.136
16.7797 1.089 0.135
16.8001 1.133 0.135
16.8205 1.146 0.135
16.8409 0.520 0.134
16.8613 1.028 0.135
16.8818 0.395 0.134
16.9022 0.414 0.134
16.9226 0.407 0.133
16.9430 0.373 0.133
16.9634 0.062 0.133
16.9838 0.629 0.134
17.0042 0.978 0.135
17.0247 1.234 0.135
17.0451 2.303 0.138
17.0655 3.651 0.141
17.0859 5.510 0.145
17.1063 7.861 0.150
17.1267 7.735 0.150
17.1471 5.832 0.145
17.1676 5.882 0.146
17.1880 8.196 0.151
17.2084 12.155 0.159
17.2288 17.163 0.169
17.2492 21.448 0.177
17.2696 20.153 0.174
17.2901 13.784 0.162
17.3105 8.590 0.151
17.3309 7.672 0.149
17.3513 10.076 0.154
17.3717 9.922 0.154
17.3921 6.294 0.146
17.4125 2.828 0.138
17.4330 1.208 0.134
17.4534 0.232 0.131
17.4738 0.364 0.131
17.4942 -0.056 0.130
17.5146 -0.050 0.130
17.5350 -0.003 0.130
17.5554 0.158 0.130
17.5759 -0.059 0.130
17.5963 0.267 0.131
17.6167 0.182 0.130
17.6371 -0.031 0.130
17.6575 -0.041 0.129
17.6779 0.297 0.130
17.6983 0.150 0.130
17.7188 -0.037 0.129
17.7392 0.298 0.130
17.7596 -0.169 0.129
17.7800 0.088 0.129
17.8004 0.304 0.130
17.8208 -0.003 0.129
17.8413 -0.126 0.129
17.8617 0.090 0.129
17.8821 0.157 0.129
17.9025 -0.128 0.128
17.9229 -0.169 0.128
17.9433 -0.079 0.128
17.9637 0.083 0.129
17.9842 0.179 0.129
18.0046 0.341 0.129
18.0250 0.128 0.128
18.0454 0.233 0.129
18.0658 0.322 0.129
18.0862 -0.159 0.127
18.1066 0.309 0.128
18.1271 0.410 0.129
18.1475 0.160 0.128
18.1679 0.073 0.128
18.1883 0.204 0.128
18.2087 -0.042 0.127
18.2291 0.210 0.128
18.2495 -0.159 0.127
18.2700 0.097 0.127
18.2904 0.102 0.127
18.3108 0.090 0.127
18.3312 -0.251 0.126
18.3516 0.098 0.127
18.3720 0.017 0.126
18.3925 -0.172 0.126
18.4129 0.037 0.126
18.4333 0.028 0.126
18.4537 0.012 0.126
18.4741 0.061 0.126
18.4945 0.161 0.126
18.5149 -0.057 0.125
18.5354 0.158 0.126
18.5558 0.018 0.125
18.5762 -0.188 0.125
18.5966 0.227 0.126
18.6170 0.124 0.125
18.6374 -0.094 0.124
18.6578 -0.049 0.124
18.6783 0.230 0.125
18.6987 0.089 0.125
18.7191 0.185 0.125
18.7395 0.242 0.125
18.7599 -0.029 0.124
18.7803 0.285 0.125
18.8007 -0.007 0.124
18.8212 -0.186 0.123
18.8416 0.261 0.124
18.8620 0.077 0.124
18.8824 0.020 0.123
18.9028 -0.309 0.122
18.9232 -0.075 0.123
18.9437 -0.123 0.123
18.9641 -0.054 0.123
18.9845 0.056 0.123
19.0049 -0.145 0.122
19.0253 -0.122 0.122
19.0457 0.202 0.123
19.0661 0.078 0.123
19.0866 -0.205 0.122
19.1070 0.166 0.123
19.1274 0.249 0.123
19.1478 0.479 0.124
19.1682 0.896 0.125
19.1886 1.268 0.125
19.2090 1.592 0.126
19.2295 2.489 0.128
19.2499 2.551 0.128
19.2703 2.605 0.129
19.2907 2.972 0.129
19.3111 2.871 0.129
19.3315 3.577 0.131
19.3519 4.317 0.132
19.3724 4.607 0.133
19.3928 4.714 0.133
19.4132 5.208 0.134
19.4336 5.702 0.136
19.4540 5.347 0.135
19.4744 5.761 0.135
19.4949 5.593 0.135
19.5153 5.096 0.134
19.5357 4.972 0.133
19.5561 4.548 0.132
19.5765 3.986 0.131
19.5969 4.132 0.131
19.6173 4.070 0.131
19.6378 3.553 0.129
19.6582 3.952 0.130
19.6786 3.754 0.130
19.6990 3.688 0.129
19.7194 4.350 0.131
19.7398 5.019 0.132
19.7602 5.828 0.134
19.7807 7.505 0.138
19.8011 9.994 0.144
19.8215 14.063 0.153
19.8419 21.248 0.167
19.8623 32.970 0.188
19.8827 49.775 0.215
19.9031 72.233 0.247
19.9236 86.802 0.265
19.9440 80.423 0.257
19.9644 60.799 0.231
19.9848 44.595 0.207
20.0052 38.855 0.198
20.0256 43.005 0.204
20.0461 46.608 0.210
20.0665 40.754 0.201
20.0869 27.856 0.178
20.1073 16.035 0.155
20.1277 8.837 0.139
20.1481 4.758 0.129
20.1685 2.920 0.124
20.1890 2.235 0.122
20.2094 1.562 0.120
20.2298 1.275 0.119
20.2502 0.896 0.118
20.2706 0.465 0.117
20.2910 0.584 0.117
20.3114 0.471 0.116
20.3319 0.028 0.115
20.3523 0.184 0.115
20.3727 0.235 0.115
20.3931 0.161 0.115
20.4135 0.383 0.115
20.4339 0.207 0.115
20.4543 -0.004 0.114
20.4748 0.280 0.114
20.4952 0.195 0.114
20.5156 -0.019 0.113
20.5360 -0.031 0.113
20.5564 0.271 0.114
20.5768 -0.117 0.112
20.5973 0.022 0.113
20.6177 0.134 0.113
20.6381 -0.114 0.112
20.6585 0.108 0.112
20.6789 0.026 0.112
20.6993 0.118 0.112
20.7197 0.121 0.112
20.7402 -0.111 0.111
20.7606 0.046 0.111
20.7810 0.068 0.111
20.8014 -0.033 0.111
20.8218 -0.068 0.111
20.8422 0.031 0.111
20.8626 0.163 0.111
20.8831 -0.102 0.110
20.9035 0.040 0.111
20.9239 -0.070 0.110
20.9443 -0.147 0.110
20.9647 0.044 0.111
20.9851 0.223 0.111
21.0055 0.145 0.111
21.0260 0.218 0.111
21.0464 0.438 0.112
21.0668 0.244 0.111
21.0872 0.469 0.112
21.1076 0.538 0.112
21.1280 0.631 0.112
21.1485 0.473 0.112
21.1689 0.840 0.113
21.1893 0.676 0.112
21.2097 0.733 0.112
21.2301 0.888 0.113
21.2505 0.878 0.113
21.2709 0.699 0.112
21.2914 0.734 0.112
21.3118 0.425 0.111
21.3322 0.519 0.111
21.3526 0.643 0.112
21.3730 0.455 0.111
21.3934 0.413 0.111
21.4138 0.360 0.110
21.4343 0.603 0.111
21.4547 0.368 0.110
21.4751 0.358 0.110
21.4955 0.638 0.111
21.5159 0.291 0.110
21.5363 0.565 0.111
21.5567 0.722 0.111
21.5772 0.906 0.111
21.5976 1.387 0.113
21.6180 2.427 0.116
21.6384 3.332 0.118
21.6588 5.424 0.124
21.6792 8.882 0.132
21.6997 12.723 0.141
21.7201 16.353 0.149
21.7405 15.180 0.147
21.7609 10.530 0.136
21.7813 7.019 0.127
21.8017 5.791 0.124
21.8221 6.434 0.126
21.8426 8.230 0.130
21.8630 8.546 0.131
21.8834 6.581 0.126
21.9038 3.863 0.118
21.9242 1.980 0.113
21.9446 1.087 0.110
21.9650 0.763 0.109
21.9855 0.465 0.108
22.0059 0.313 0.107
22.0263 0.296 0.107
22.0467 0.137 0.107
22.0671 0.052 0.106
22.0875 0.040 0.106
22.1079 0.342 0.107
22.1284 -0.211 0.105
22.1488 -0.032 0.105
22.1692 0.038 0.105
22.1896 -0.043 0.105
22.2100 -0.056 0.105
22.2304 0.101 0.105
22.2509 0.036 0.105
22.2713 0.126 0.105
22.2917 0.111 0.105
22.3121 0.030 0.105
22.3325 0.197 0.105
22.3529 0.234 0.105
22.3733 0.006 0.105
22.3938 0.039 0.105
22.4142 0.092 0.105
22.4346 -0.055 0.104
22.4550 -0.103 0.104
22.4754 0.196 0.105
22.4958 0.179 0.105
22.5162 -0.130 0.104
22.5367 -0.016 0.104
22.5571 0.002 0.104
22.5775 0.135 0.104
22.5979 0.225 0.104
22.6183 0.196 0.104
22.6387 -0.127 0.103
22.6591 -0.059 0.103
22.6796 0.044 0.103
22.7000 -0.187 0.103
22.7204 0.194 0.104
22.7408 -0.085 0.103
22.7612 -0.234 0.102
22.7816 0.038 0.103
22.8021 0.048 0.103
22.8225 0.045 0.103
22.8429 0.106 0.103
22.8633 0.015 0.103
22.8837 -0.121 0.102
22.9041 0.050 0.102
22.9245 0.067 0.102
22.9450 0.032 0.102
22.9654 0.168 0.103
22.9858 0.114 0.102
23.0062 -0.068 0.102
23.0266 0.074 0.102
23.0470 0.115 0.102
23.0674 -0.152 0.101
23.0879 0.161 0.102
23.1083 0.187 0.102
23.1287 0.040 0.101
23.1491 -0.023 0.101
23.1695 0.165 0.102
23.1899 -0.042 0.101
23.2103 0.296 0.102
23.2308 -0.184 0.100
23.2512 0.035 0.101
23.2716 0.175 0.101
23.2920 -0.036 0.100
23.3124 0.077 0.101
23.3328 -0.001 0.100
23.3533 -0.100 0.100
23.3737 0.104 0.100
23.3941 0.002 0.100
23.4145 0.092 0.100
23.4349 -0.111 0.099
23.4553 -0.045 0.099
23.4757 0.101 0.100
23.4962 -0.079 0.099
23.5166 -0.079 0.099
23.5370 0.039 0.100
23.5574 0.081 0.100
23.5778 -0.204 0.099
23.5982 0.189 0.100
23.6186 0.021 0.099
23.6391 -0.016 0.099
23.6595 0.140 0.100
23.6799 0.236 0.100
23.7003 -0.116 0.099
23.7207 0.008 0.099
23.7411 0.104 0.099
23.7615 0.066 0.099
23.7820 0.058 0.099
23.8024 0.086 0.099
23.8228 0.012 0.099
23.8432 -0.042 0.098
23.8636 0.073 0.099
23.8840 -0.033 0.098
23.9045 -0.087 0.098
23.9249 0.120 0.099
23.9453 -0.172 0.098
23.9657 0.079 0.098
23.9861 0.063 0.098
24.0065 -0.125 0.098
24.0269 0.214 0.099
24.0474 0.035 0.098
24.0678 0.011 0.098
24.0882 0.033 0.098
24.1086 0.154 0.098
24.1290 0.141 0.098
24.1494 0.213 0.099
24.1698 0.183 0.098
24.1903 -0.079 0.098
24.2107 0.169 0.098
24.2311 0.134 0.098
24.2515 -0.082 0.097
24.2719 -0.014 0.098
24.2923 -0.093 0.097
24.3127 -0.061 0.097
24.3332 -0.048 0.097
24.3536 0.097 0.098
24.3740 -0.101 0.097
24.3944 0.117 0.098
24.4148 0.079 0.098
24.4352 -0.137 0.097
24.4557 -0.058 0.097
24.4761 0.097 0.098
24.4965 0.205 0.098
24.5169 0.052 0.097
24.5373 0.018 0.097
24.5577 0.035 0.097
24.5781 -0.009 0.097
24.5986 0.011 0.097
24.6190 -0.026 0.097
24.6394 -0.082 0.097
24.6598 0.064 0.097
24.6802 0.014 0.097
24.7006 0.080 0.097
24.7210 0.329 0.098
24.7415 0.216 0.097
24.7619 -0.039 0.097
24.7823 0.196 0.097
24.8027 0.014 0.097
24.8231 0.050 0.097
24.8435 0.271 0.097
24.8639 0.072 0.097
24.8844 -0.244 0.096
24.9048 0.123 0.097
24.9252 0.202 0.097
24.9456 0.043 0.097
24.9660 0.118 0.097
24.9864 -0.017 0.096
25.0069 0.000 0.096
25.0273 -0.033 0.096
25.0477 0.030 0.097
25.0681 -0.118 0.096
25.0885 0.024 0.097
25.1089 0.321 0.098
25.1293 -0.198 0.096
25.1498 0.021 0.097
25.1702 0.093 0.098
25.1906 0.002 0.097
25.2110 0.349 0.099
25.2314 0.485 0.099
25.2518 0.481 0.099
25.2722 0.558 0.100
25.2927 0.532 0.100
25.3131 0.445 0.100
25.3335 0.624 0.100
25.3539 0.718 0.101
25.3743 0.539 0.100
25.3947 0.735 0.101
25.4152 0.697 0.101
25.4356 0.404 0.100
25.4560 0.494 0.101
25.4764 0.586 0.101
25.4968 0.371 0.100
25.5172 0.605 0.101
25.5376 0.651 0.101
25.5581 0.328 0.101
25.5785 0.208 0.100
25.5989 0.218 0.100
25.6193 -0.074 0.099
25.6397 0.011 0.100
25.6601 0.144 0.100
25.6805 0.337 0.101
25.7010 0.274 0.101
25.7214 0.415 0.101
25.7418 0.687 0.102
25.7622 0.646 0.102
25.7826 1.584 0.105
25.8030 2.447 0.108
25.8234 3.815 0.112
25.8439 5.037 0.116
25.8643 6.339 0.119
25.8847 7.946 0.124
25.9051 10.989 0.132
25.9255 13.823 0.138
25.9459 14.479 0.140
25.9664 13.742 0.138
25.9868 10.695 0.131
26.0072 7.547 0.123
26.0276 6.191 0.119
26.0480 5.815 0.118
26.0684 6.167 0.119
26.0888 7.320 0.123
26.1093 7.216 0.122
26.1297 5.842 0.119
26.1501 3.944 0.113
26.1705 2.330 0.109
26.1909 1.227 0.105
26.2113 0.508 0.103
26.2317 0.214 0.102
26.2522 -0.179 0.101
26.2726 -0.101 0.101
26.2930 0.214 0.102
26.3134 -0.223 0.101
26.3338 0.217 0.102
26.3542 0.260 0.103
26.3746 0.179 0.103
26.3951 0.662 0.104
26.4155 1.109 0.106
26.4359 0.978 0.105
26.4563 1.431 0.107
26.4767 1.889 0.108
26.4971 2.010 0.109
26.5176 2.469 0.110
26.5380 3.088 0.112
26.5584 3.181 0.112
26.5788 3.932 0.114
26.5992 4.382 0.116
26.6196 4.685 0.117
26.6400 5.250 0.118
26.6605 6.142 0.121
26.6809 6.658 0.122
26.7013 7.040 0.123
26.7217 7.829 0.125
26.7421 8.251 0.127
26.7625 8.674 0.128
26.7829 9.558 0.130
26.8034 9.925 0.131
26.8238 10.454 0.132
26.8442 11.746 0.135
26.8646 12.228 0.137
26.8850 11.942 0.136
26.9054 12.719 0.138
26.9258 13.624 0.140
26.9463 13.288 0.139
26.9667 14.227 0.141
26.9871 15.044 0.143
27.0075 14.201 0.141
27.0279 14.838 0.143
27.0483 15.295 0.144
27.0688 14.978 0.143
27.0892 15.303 0.144
27.1096 16.135 0.146
27.1300 15.169 0.144
27.1504 15.663 0.145
27.1708 16.035 0.146
27.1912 14.616 0.142
27.2117 14.529 0.142
27.2321 15.276 0.144
27.2525 14.465 0.142
27.2729 13.700 0.140
27.2933 13.303 0.139
27.3137 12.408 0.137
27.3341 12.146 0.137
27.3546 12.318 0.137
27.3750 11.303 0.134
27.3954 10.812 0.133
27.4158 10.581 0.133
27.4362 9.720 0.131
27.4566 8.961 0.129
27.4770 8.726 0.128
27.4975 7.602 0.125
27.5179 7.079 0.124
27.5383 7.159 0.124
27.5587 6.278 0.122
27.5791 5.824 0.120
27.5995 5.886 0.120
27.6200 5.115 0.118
27.6404 4.411 0.116
27.6608 4.676 0.117
27.6812 4.128 0.115
27.7016 3.738 0.114
27.7220 3.636 0.114
27.7424 3.268 0.113
27.7629 3.148 0.112
27.7833 3.400 0.113
27.8037 3.400 0.113
27.8241 3.182 0.112
27.8445 3.127 0.112
27.8649 2.883 0.111
27.8853 2.635 0.111
27.9058 2.711 0.111
27.9262 2.565 0.110
27.9466 2.530 0.110
27.9670 2.867 0.111
27.9874 2.733 0.111
28.0078 2.528 0.110
28.0282 2.762 0.111
28.0487 2.811 0.111
28.0691 2.530 0.110
28.0895 2.513 0.110
28.1099 2.881 0.111
28.1303 2.702 0.110
28.1507 3.520 0.112
28.1712 4.702 0.116
28.1916 6.074 0.119
28.2120 9.096 0.127
28.2324 13.225 0.137
28.2528 18.300 0.149
28.2732 22.993 0.159
28.2936 23.396 0.159
28.3141 19.178 0.150
28.3345 14.898 0.141
28.3549 12.151 0.134
28.3753 12.097 0.134
28.3957 15.422 0.142
28.4161 21.677 0.155
28.4365 28.555 0.169
28.4570 34.508 0.180
28.4774 33.430 0.178
28.4978 25.591 0.163
28.5182 16.849 0.144
28.5386 10.864 0.130
28.5590 7.862 0.122
28.5794 7.632 0.122
28.5999 9.311 0.126
28.6203 11.329 0.131
28.6407 12.772 0.134
28.6611 11.113 0.130
28.6815 7.633 0.121
28.7019 4.721 0.113
28.7224 2.120 0.105
28.7428 1.024 0.101
28.7632 0.462 0.099
28.7836 0.364 0.099
28.8040 0.139 0.098
28.8244 -0.103 0.097
28.8448 0.016 0.097
28.8653 -0.022 0.097
28.8857 0.000 0.097
28.9061 0.006 0.097
28.9265 -0.104 0.096
28.9469 -0.166 0.096
28.9673 0.022 0.097
28.9877 0.018 0.097
29.0082 0.063 0.097
29.0286 0.226 0.097
29.0490 0.405 0.098
29.0694 0.144 0.097
29.0898 0.416 0.098
29.1102 0.715 0.099
29.1306 0.615 0.099
29.1511 0.700 0.099
29.1715 0.620 0.099
29.1919 0.640 0.099
29.2123 0.765 0.099
29.2327 0.871 0.100
29.2531 1.011 0.100
29.2736 1.186 0.101
29.2940 1.246 0.101
29.3144 1.047 0.100
29.3348 1.067 0.100
29.3552 1.150 0.101
29.3756 0.943 0.100
29.3960 0.942 0.100
29.4165 0.836 0.099
29.4369 0.639 0.099
29.4573 0.768 0.099
29.4777 0.730 0.099
29.4981 0.729 0.099
29.5185 0.954 0.100
29.5389 1.165 0.100
29.5594 1.079 0.100
29.5798 1.027 0.100
29.6002 1.219 0.100
29.6206 1.401 0.101
29.6410 2.047 0.103
29.6614 2.639 0.105
29.6818 3.503 0.107
29.7023 5.205 0.112
29.7227 7.839 0.120
29.7431 11.239 0.129
29.7635 14.810 0.137
29.7839 16.013 0.140
29.8043 13.676 0.135
29.8248 10.500 0.127
29.8452 7.093 0.117
29.8656 5.083 0.112
29.8860 4.588 0.110
29.9064 5.164 0.112
29.9268 5.885 0.114
29.9472 7.712 0.119
29.9677 8.202 0.120
29.9881 6.848 0.116
30.0085 5.000 0.111
30.0289 3.231 0.106
30.0493 1.659 0.101
30.0697 0.918 0.098
30.0901 0.748 0.097
30.1106 0.482 0.096
30.1310 0.313 0.096
30.1514 0.345 0.096
30.1718 -0.070 0.094
30.1922 0.075 0.095
30.2126 0.086 0.094
30.2330 0.104 0.094
30.2535 0.003 0.094
30.2739 0.065 0.094
30.2943 0.178 0.094
30.3147 -0.088 0.094
30.3351 0.020 0.094
30.3555 0.107 0.094
30.3760 0.005 0.094
30.3964 -0.064 0.094
30.4168 -0.004 0.094
30.4372 -0.214 0.093
30.4576 0.017 0.094
30.4780 -0.004 0.094
30.4984 -0.052 0.094
30.5189 0.109 0.094
30.5393 0.197 0.095
30.5597 0.067 0.094
30.5801 0.172 0.095
30.6005 0.297 0.095
30.6209 0.132 0.095
30.6413 0.315 0.095
30.6618 0.344 0.095
30.6822 0.172 0.095
30.7026 0.337 0.095
30.7230 0.560 0.096
30.7434 0.627 0.097
30.7638 0.879 0.097
30.7842 1.156 0.098
30.8047 0.991 0.098
30.8251 1.139 0.098
30.8455 1.387 0.099
30.8659 1.348 0.099
30.8863 1.547 0.100
30.9067 1.800 0.100
30.9272 1.718 0.100
30.9476 1.984 0.101
30.9680 2.149 0.102
30.9884 2.057 0.101
31.0088 2.398 0.102
31.0292 2.685 0.103
31.0496 2.747 0.103
31.0701 2.759 0.103
31.0905 3.053 0.104
31.1109 3.269 0.105
31.1313 3.249 0.105
31.1517 3.496 0.106
31.1721 3.618 0.106
31.1925 3.610 0.106
31.2130 3.888 0.107
31.2334 3.681 0.106
31.2538 3.618 0.106
31.2742 3.849 0.107
31.2946 4.003 0.107
31.3150 3.994 0.107
31.3354 4.169 0.107
31.3559 4.324 0.108
31.3763 3.926 0.107
31.3967 4.111 0.107
31.4171 4.265 0.108
31.4375 3.983 0.107
31.4579 3.805 0.106
31.4784 3.649 0.105
31.4988 3.371 0.105
31.5192 3.518 0.105
31.5396 3.548 0.105
31.5600 3.081 0.103
31.5804 3.005 0.103
31.6008 2.892 0.103
31.6213 2.629 0.102
31.6417 2.444 0.101
31.6621 2.482 0.101
31.6825 1.942 0.099
31.7029 1.923 0.099
31.7233 1.808 0.099
31.7437 1.564 0.098
31.7642 1.449 0.097
31.7846 1.300 0.097
31.8050 1.068 0.096
31.8254 0.747 0.095
31.8458 0.921 0.095
31.8662 0.721 0.094
31.8866 0.589 0.094
31.9071 0.452 0.093
31.9275 0.247 0.092
31.9479 0.108 0.092
31.9683 0.190 0.092
31.9887 0.133 0.092
32.0091 0.052 0.091
32.0296 0.199 0.092
32.0500 -0.080 0.091
32.0704 -0.118 0.090
32.0908 0.031 0.091
32.1112 -0.123 0.090
32.1316 -0.018 0.090
32.1520 0.009 0.090
32.1725 -0.090 0.090
32.1929 0.101 0.091
32.2133 -0.152 0.090
32.2337 -0.198 0.089
32.2541 -0.089 0.090
32.2745 0.125 0.091
32.2949 0.072 0.090
32.3154 0.158 0.091
32.3358 -0.018 0.090
32.3562 -0.027 0.090
32.3766 0.155 0.091
32.3970 0.182 0.091
32.4174 -0.026 0.090
32.4378 -0.036 0.090
32.4583 0.105 0.091
32.4787 0.078 0.091
32.4991 0.158 0.091
32.5195 0.256 0.091
32.5399 0.267 0.092
32.5603 0.056 0.091
32.5808 0.124 0.091
32.6012 0.186 0.091
32.6216 0.292 0.092
32.6420 0.254 0.092
32.6624 0.313 0.092
32.6828 0.380 0.092
32.7032 0.531 0.093
32.7237 0.387 0.092
32.7441 0.393 0.092
32.7645 0.725 0.094
32.7849 0.582 0.093
32.8053 0.533 0.093
32.8257 0.675 0.093
32.8461 0.933 0.094
32.8666 0.564 0.093
32.8870 0.859 0.094
32.9074 0.918 0.094
32.9278 0.836 0.094
32.9482 1.108 0.095
32.9686 1.217 0.095
32.9890 1.229 0.095
33.0095 1.372 0.096
33.0299 1.759 0.097
33.0503 1.997 0.098
33.0707 2.662 0.100
33.0911 3.924 0.104
33.1115 4.480 0.106
33.1320 5.405 0.109
33.1524 5.331 0.108
33.1728 4.465 0.106
33.1932 3.876 0.104
33.2136 3.448 0.103
33.2340 3.474 0.103
33.2544 4.036 0.104
33.2749 4.965 0.107
33.2953 5.201 0.108
33.3157 5.716 0.109
33.3361 5.628 0.109
33.3565 5.419 0.108
33.3769 5.694 0.109
33.3973 6.290 0.111
33.4178 7.013 0.113
33.4382 7.714 0.115
33.4586 8.401 0.117
33.4790 7.885 0.115
33.4994 7.358 0.114
33.5198 6.317 0.111
33.5402 5.239 0.107
33.5607 4.033 0.104
33.5811 3.550 0.102
33.6015 3.268 0.101
33.6219 3.319 0.101
33.6423 3.639 0.102
33.6627 3.304 0.101
33.6832 3.247 0.101
33.7036 2.825 0.099
33.7240 2.112 0.097
33.7444 1.830 0.096
33.7648 1.501 0.095
33.7852 1.035 0.093
33.8056 0.507 0.091
33.8261 0.271 0.090
33.8465 0.228 0.090
33.8669 0.096 0.089
33.8873 0.123 0.089
33.9077 0.169 0.089
33.9281 -0.092 0.088
33.9485 -0.124 0.088
33.9690 0.088 0.089
33.9894 -0.067 0.088
34.0098 0.075 0.089
34.0302 0.233 0.089
34.0506 -0.106 0.088
34.0710 0.000 0.089
34.0915 0.262 0.090
34.1119 0.002 0.089
34.1323 0.176 0.089
34.1527 0.012 0.089
34.1731 -0.093 0.089
34.1935 0.098 0.089
34.2139 0.130 0.090
34.2344 0.024 0.089
34.2548 0.049 0.089
34.2752 0.020 0.089
34.2956 -0.089 0.089
34.3160 0.062 0.090
34.3364 0.186 0.091
34.3568 -0.008 0.090
34.3773 0.083 0.091
34.3977 0.153 0.091
34.4181 -0.143 0.090
34.4385 0.096 0.091
34.4589 0.006 0.091
34.4793 -0.038 0.091
34.4997 -0.009 0.091
34.5202 0.094 0.092
34.5406 -0.035 0.092
34.5610 -0.061 0.092
34.5814 -0.044 0.092
34.6018 0.028 0.093
34.6171 0.000 0.093