File: Data/XRD/NMC_3_GM_10tt50tt_05ts_6ks_bg_subtracted.xye
'Id: "" Comment: "" Operator: "Lab Manager" Anode: "Mo" Scantype: "Coupled TwoTheta/Theta" TimePerStep: "288" X: "9999" Y: "9999" Z: "9999"
10.0000 0.000 0.343
10.0286 0.942 0.347
10.0572 -0.178 0.340
10.0857 0.175 0.341
10.1143 0.145 0.339
10.1429 -0.424 0.335
10.1715 0.350 0.338
10.2001 -0.254 0.334
10.2286 0.135 0.335
10.2572 0.486 0.336
10.2858 -0.598 0.330
10.3144 0.059 0.332
10.3430 0.236 0.332
10.3715 -0.003 0.330
10.4001 0.526 0.332
10.4287 0.311 0.330
10.4573 -0.236 0.326
10.4859 -0.433 0.325
10.5145 0.349 0.328
10.5430 -0.021 0.326
10.5716 0.158 0.326
10.6002 -0.230 0.323
10.6288 0.258 0.325
10.6574 0.414 0.325
10.6859 0.642 0.326
10.7145 0.098 0.322
10.7431 0.002 0.321
10.7717 0.061 0.321
10.8003 -0.233 0.319
10.8288 -0.500 0.318
10.8574 -0.030 0.320
10.8860 0.235 0.321
10.9146 0.062 0.320
10.9432 -0.113 0.318
10.9717 0.179 0.320
11.0003 0.365 0.320
11.0289 0.696 0.322
11.0575 -0.539 0.314
11.0861 0.810 0.321
11.1146 0.332 0.319
11.1432 0.157 0.317
11.1718 0.763 0.320
11.2004 0.389 0.318
11.2290 0.881 0.320
11.2576 0.851 0.320
11.2861 0.444 0.317
11.3147 0.855 0.319
11.3433 0.819 0.318
11.3719 1.388 0.321
11.4005 1.095 0.319
11.4290 1.056 0.318
11.4576 1.173 0.319
11.4862 1.627 0.321
11.5148 1.237 0.318
11.5434 1.042 0.317
11.5719 1.138 0.317
11.6005 1.582 0.319
11.6291 1.321 0.317
11.6577 1.366 0.317
11.6863 1.796 0.319
11.7148 1.307 0.316
11.7434 1.779 0.318
11.7720 2.358 0.321
11.8006 1.720 0.317
11.8292 2.425 0.321
11.8577 2.133 0.319
11.8863 2.602 0.321
11.9149 2.412 0.319
11.9435 2.488 0.319
11.9721 2.482 0.319
12.0007 2.247 0.317
12.0292 2.532 0.318
12.0578 3.654 0.324
12.0864 2.114 0.315
12.1150 3.097 0.320
12.1436 2.907 0.319
12.1721 2.704 0.318
12.2007 3.285 0.320
12.2293 3.668 0.322
12.2579 3.315 0.320
12.2865 3.230 0.319
12.3150 3.093 0.318
12.3436 3.761 0.321
12.3722 3.981 0.322
12.4008 3.716 0.320
12.4294 4.100 0.322
12.4579 3.512 0.318
12.4865 3.837 0.319
12.5151 3.839 0.319
12.5437 3.824 0.319
12.5723 3.982 0.319
12.6008 4.690 0.322
12.6294 4.182 0.319
12.6580 3.566 0.316
12.6866 3.808 0.317
12.7152 4.624 0.321
12.7438 4.588 0.320
12.7723 4.505 0.319
12.8009 4.504 0.319
12.8295 4.410 0.318
12.8581 4.642 0.319
12.8867 4.094 0.315
12.9152 4.389 0.317
12.9438 4.104 0.315
12.9724 4.725 0.318
13.0010 4.396 0.315
13.0296 4.316 0.315
13.0581 4.455 0.315
13.0867 4.352 0.314
13.1153 4.234 0.313
13.1439 4.325 0.313
13.1725 4.291 0.312
13.2010 4.597 0.314
13.2296 3.785 0.309
13.2582 4.554 0.313
13.2868 3.996 0.309
13.3154 4.841 0.313
13.3439 3.967 0.308
13.3725 4.079 0.308
13.4011 3.553 0.305
13.4297 4.315 0.309
13.4583 3.986 0.306
13.4869 3.672 0.304
13.5154 3.260 0.301
13.5440 3.349 0.302
13.5726 4.004 0.305
13.6012 3.405 0.301
13.6298 3.671 0.302
13.6583 3.294 0.300
13.6869 3.526 0.300
13.7155 3.757 0.301
13.7441 3.725 0.301
13.7727 3.130 0.297
13.8012 2.907 0.295
13.8298 3.295 0.297
13.8584 3.200 0.296
13.8870 2.884 0.294
13.9156 2.935 0.293
13.9441 3.088 0.294
13.9727 2.681 0.291
14.0013 2.632 0.290
14.0299 2.416 0.289
14.0585 3.409 0.294
14.0870 2.621 0.289
14.1156 3.218 0.292
14.1442 2.538 0.287
14.1728 2.983 0.290
14.2014 2.719 0.288
14.2300 2.160 0.284
14.2585 2.063 0.283
14.2871 2.515 0.285
14.3157 2.214 0.283
14.3443 2.166 0.282
14.3729 1.931 0.280
14.4014 2.157 0.281
14.4300 1.880 0.279
14.4586 1.513 0.276
14.4872 2.046 0.279
14.5158 2.179 0.279
14.5443 1.392 0.274
14.5729 1.563 0.274
14.6015 1.370 0.273
14.6301 1.671 0.274
14.6587 1.485 0.272
14.6872 1.646 0.273
14.7158 1.349 0.270
14.7444 1.351 0.270
14.7730 1.121 0.268
14.8016 0.956 0.266
14.8301 0.861 0.265
14.8587 1.342 0.268
14.8873 1.490 0.268
14.9159 0.305 0.260
14.9445 0.315 0.259
14.9731 1.008 0.264
15.0016 0.928 0.263
15.0302 0.597 0.260
15.0588 0.558 0.259
15.0874 0.478 0.258
15.1160 0.710 0.259
15.1445 0.647 0.258
15.1731 0.692 0.258
15.2017 1.011 0.259
15.2303 0.570 0.256
15.2589 0.799 0.257
15.2874 0.198 0.252
15.3160 0.601 0.254
15.3446 0.227 0.251
15.3732 -0.256 0.247
15.4018 -0.189 0.247
15.4303 0.509 0.252
15.4589 -0.185 0.246
15.4875 0.319 0.249
15.5161 0.219 0.248
15.5447 0.501 0.249
15.5732 0.631 0.250
15.6018 0.392 0.247
15.6304 -0.242 0.242
15.6590 0.084 0.244
15.6876 -0.173 0.242
15.7162 -0.101 0.243
15.7447 0.087 0.244
15.7733 -0.385 0.240
15.8019 -0.083 0.242
15.8305 -0.163 0.241
15.8591 0.188 0.243
15.8876 -0.270 0.240
15.9162 0.689 0.246
15.9448 1.325 0.250
15.9734 1.572 0.252
16.0020 1.962 0.254
16.0305 2.987 0.261
16.0591 3.272 0.263
16.0877 3.454 0.264
16.1163 3.757 0.265
16.1449 3.887 0.266
16.1734 4.065 0.267
16.2020 3.948 0.266
16.2306 4.054 0.266
16.2592 3.413 0.262
16.2878 3.932 0.265
16.3163 4.892 0.271
16.3449 6.341 0.280
16.3735 7.551 0.287
16.4021 12.220 0.314
16.4307 15.580 0.331
16.4593 20.137 0.354
16.4878 26.035 0.382
16.5164 33.857 0.416
16.5450 34.005 0.416
16.5736 22.053 0.363
16.6022 16.364 0.334
16.6307 17.662 0.341
16.6593 12.369 0.312
16.6879 5.379 0.271
16.7165 3.563 0.258
16.7451 2.659 0.252
16.7736 2.523 0.251
16.8022 2.683 0.252
16.8308 2.273 0.248
16.8594 2.915 0.253
16.8880 2.449 0.249
16.9165 2.686 0.250
16.9451 3.088 0.253
16.9737 3.363 0.254
17.0023 3.748 0.257
17.0309 4.061 0.259
17.0594 4.871 0.264
17.0880 7.614 0.281
17.1166 9.056 0.289
17.1452 10.119 0.296
17.1738 9.696 0.293
17.2023 11.287 0.302
17.2309 14.062 0.317
17.2595 16.838 0.332
17.2881 12.248 0.307
17.3167 6.760 0.273
17.3453 7.154 0.276
17.3738 6.648 0.272
17.4024 3.830 0.253
17.4310 1.870 0.239
17.4596 0.531 0.229
17.4882 0.550 0.229
17.5167 0.170 0.226
17.5453 0.338 0.226
17.5739 0.142 0.225
17.6025 0.356 0.226
17.6311 -0.020 0.223
17.6596 0.312 0.225
17.6882 0.415 0.225
17.7168 -0.010 0.222
17.7454 0.246 0.223
17.7740 0.363 0.224
17.8025 0.470 0.224
17.8311 0.545 0.225
17.8597 0.173 0.221
17.8883 0.027 0.220
17.9169 0.200 0.221
17.9454 -0.054 0.219
17.9740 0.039 0.219
18.0026 0.004 0.218
18.0312 0.181 0.219
18.0598 0.022 0.218
18.0884 0.403 0.220
18.1169 -0.003 0.217
18.1455 -0.069 0.216
18.1741 0.470 0.220
18.2027 0.286 0.218
18.2313 0.297 0.218
18.2598 0.075 0.216
18.2884 0.121 0.216
18.3170 -0.163 0.213
18.3456 0.254 0.216
18.3742 -0.093 0.213
18.4027 0.088 0.214
18.4313 -0.081 0.212
18.4599 0.149 0.214
18.4885 0.125 0.213
18.5171 0.248 0.214
18.5456 0.197 0.213
18.5742 0.188 0.212
18.6028 0.105 0.211
18.6314 -0.119 0.209
18.6600 0.292 0.212
18.6885 0.057 0.210
18.7171 0.160 0.210
18.7457 -0.003 0.209
18.7743 0.030 0.209
18.8029 -0.041 0.208
18.8315 -0.063 0.207
18.8600 0.383 0.211
18.8886 -0.303 0.205
18.9172 -0.116 0.206
18.9458 -0.156 0.205
18.9744 0.159 0.208
19.0029 0.179 0.207
19.0315 0.142 0.207
19.0601 0.197 0.207
19.0887 0.128 0.206
19.1173 0.305 0.207
19.1458 0.197 0.206
19.1744 0.592 0.209
19.2030 0.575 0.209
19.2316 0.982 0.212
19.2602 1.565 0.216
19.2887 2.225 0.221
19.3173 2.955 0.227
19.3459 4.580 0.238
19.3745 6.192 0.250
19.4031 6.866 0.254
19.4316 7.398 0.257
19.4602 8.315 0.263
19.4888 8.993 0.267
19.5174 9.303 0.269
19.5460 9.915 0.273
19.5746 9.500 0.270
19.6031 9.480 0.270
19.6317 8.742 0.265
19.6603 9.327 0.268
19.6889 9.050 0.266
19.7175 10.806 0.277
19.7460 13.818 0.295
19.7746 18.344 0.321
19.8032 24.880 0.354
19.8318 33.063 0.392
19.8604 40.863 0.425
19.8889 50.803 0.464
19.9175 65.020 0.514
19.9461 64.033 0.511
19.9747 46.320 0.446
20.0033 32.965 0.391
20.0318 31.373 0.383
20.0604 29.914 0.376
20.0890 19.688 0.326
20.1176 8.763 0.261
20.1462 4.721 0.232
20.1747 2.425 0.214
20.2033 1.571 0.206
20.2319 1.716 0.207
20.2605 0.747 0.199
20.2891 0.292 0.194
20.3177 0.455 0.195
20.3462 0.420 0.195
20.3748 0.608 0.196
20.4034 0.681 0.196
20.4320 0.240 0.192
20.4606 0.348 0.193
20.4891 0.151 0.191
20.5177 0.231 0.191
20.5463 0.357 0.192
20.5749 -0.209 0.186
20.6035 0.198 0.190
20.6320 -0.068 0.187
20.6606 0.051 0.188
20.6892 0.034 0.187
20.7178 0.046 0.187
20.7464 -0.023 0.186
20.7749 0.152 0.187
20.8035 -0.250 0.183
20.8321 0.189 0.187
20.8607 -0.063 0.184
20.8893 -0.024 0.184
20.9178 -0.280 0.181
20.9464 0.435 0.188
20.9750 0.053 0.184
21.0036 -0.135 0.182
21.0322 0.327 0.186
21.0608 0.070 0.183
21.0893 0.393 0.186
21.1179 0.705 0.189
21.1465 0.733 0.189
21.1751 0.758 0.189
21.2037 0.713 0.188
21.2322 1.304 0.193
21.2608 1.193 0.192
21.2894 1.687 0.196
21.3180 1.819 0.197
21.3466 1.438 0.193
21.3751 1.935 0.197
21.4037 1.624 0.194
21.4323 1.361 0.192
21.4609 1.859 0.196
21.4895 1.946 0.196
21.5180 2.437 0.200
21.5466 2.859 0.204
21.5752 3.655 0.210
21.6038 4.907 0.220
21.6324 6.228 0.230
21.6609 7.764 0.241
21.6895 9.613 0.254
21.7181 12.271 0.271
21.7467 12.357 0.272
21.7753 8.137 0.243
21.8039 5.843 0.226
21.8324 5.353 0.222
21.8610 5.949 0.226
21.8896 4.298 0.213
21.9182 2.054 0.193
21.9468 1.001 0.183
21.9753 0.584 0.179
22.0039 0.774 0.181
22.0325 0.148 0.174
22.0611 0.238 0.175
22.0897 -0.075 0.171
22.1182 0.445 0.176
22.1468 0.264 0.174
22.1754 0.184 0.173
22.2040 0.132 0.172
22.2326 -0.087 0.170
22.2611 0.097 0.171
22.2897 0.288 0.173
22.3183 0.245 0.172
22.3469 0.050 0.170
22.3755 0.473 0.174
22.4040 -0.118 0.167
22.4326 0.329 0.172
22.4612 0.224 0.170
22.4898 -0.082 0.167
22.5184 0.234 0.170
22.5470 0.095 0.168
22.5755 0.053 0.167
22.6041 0.091 0.167
22.6327 0.240 0.169
22.6613 0.275 0.169
22.6899 -0.166 0.164
22.7184 0.369 0.169
22.7470 0.529 0.170
22.7756 -0.227 0.162
22.8042 0.312 0.167
22.8328 -0.156 0.162
22.8613 0.223 0.166
22.8899 -0.075 0.162
22.9185 0.162 0.165
22.9471 0.187 0.164
22.9757 0.313 0.165
23.0042 0.116 0.163
23.0328 0.027 0.162
23.0614 0.219 0.163
23.0900 0.051 0.161
23.1186 0.083 0.161
23.1471 0.043 0.160
23.1757 -0.097 0.159
23.2043 -0.127 0.158
23.2329 0.375 0.163
23.2615 0.033 0.159
23.2901 0.198 0.160
23.3186 0.124 0.159
23.3472 0.161 0.159
23.3758 -0.011 0.157
23.4044 -0.002 0.157
23.4330 0.529 0.162
23.4615 -0.021 0.156
23.4901 -0.154 0.154
23.5187 0.015 0.156
23.5473 -0.125 0.154
23.5759 0.189 0.157
23.6044 -0.017 0.154
23.6330 0.142 0.156
23.6616 0.412 0.159
23.6902 0.248 0.157
23.7188 0.070 0.154
23.7473 0.257 0.156
23.7759 -0.178 0.151
23.8045 0.172 0.155
23.8331 -0.120 0.151
23.8617 0.262 0.155
23.8902 -0.141 0.150
23.9188 0.359 0.156
23.9474 -0.117 0.150
23.9760 0.138 0.153
24.0046 -0.126 0.150
24.0331 -0.216 0.149
24.0617 0.006 0.151
24.0903 0.273 0.154
24.1189 0.222 0.154
24.1475 0.277 0.154
24.1761 -0.021 0.151
24.2046 0.074 0.152
24.2332 0.019 0.151
24.2618 -0.116 0.149
24.2904 0.315 0.154
24.3190 0.056 0.151
24.3475 0.220 0.153
24.3761 -0.015 0.150
24.4047 0.111 0.152
24.4333 0.167 0.152
24.4619 0.165 0.152
24.4904 0.232 0.153
24.5190 0.255 0.153
24.5476 -0.087 0.149
24.5762 0.154 0.152
24.6048 -0.008 0.150
24.6333 -0.148 0.148
24.6619 0.340 0.154
24.6905 -0.213 0.148
24.7191 0.033 0.151
24.7477 0.188 0.152
24.7762 0.021 0.150
24.8048 -0.150 0.148
24.8334 0.054 0.151
24.8620 -0.082 0.149
24.8906 0.033 0.151
24.9192 0.057 0.151
24.9477 -0.027 0.150
24.9763 -0.023 0.150
25.0049 0.029 0.151
25.0335 -0.190 0.148
25.0621 -0.082 0.149
25.0906 -0.111 0.149
25.1192 0.124 0.152
25.1478 0.157 0.152
25.1764 0.038 0.151
25.2050 0.248 0.154
25.2335 0.685 0.159
25.2621 0.510 0.157
25.2907 0.405 0.156
25.3193 1.050 0.163
25.3479 1.418 0.167
25.3764 1.198 0.164
25.4050 1.285 0.165
25.4336 1.711 0.170
25.4622 1.728 0.170
25.4908 1.916 0.172
25.5193 1.881 0.172
25.5479 1.863 0.172
25.5765 2.141 0.175
25.6051 2.572 0.179
25.6337 2.138 0.175
25.6623 2.298 0.176
25.6908 2.402 0.177
25.7194 3.455 0.188
25.7480 3.879 0.191
25.7766 5.074 0.202
25.8052 6.394 0.213
25.8337 8.648 0.231
25.8623 9.580 0.238
25.8909 10.456 0.244
25.9195 11.870 0.254
25.9481 12.940 0.261
25.9766 11.754 0.253
26.0052 8.582 0.231
26.0338 6.705 0.216
26.0624 6.539 0.215
26.0910 6.961 0.218
26.1195 5.987 0.210
26.1481 4.364 0.197
26.1767 2.924 0.183
26.2053 1.846 0.173
26.2339 1.400 0.169
26.2624 1.333 0.168
26.2910 1.359 0.168
26.3196 1.400 0.169
26.3482 1.739 0.172
26.3768 2.023 0.175
26.4054 2.508 0.180
26.4339 3.257 0.187
26.4625 3.430 0.189
26.4911 4.109 0.195
26.5197 4.373 0.197
26.5483 5.160 0.204
26.5768 6.181 0.213
26.6054 6.520 0.215
26.6340 7.169 0.221
26.6626 8.287 0.229
26.6912 8.829 0.233
26.7197 9.856 0.241
26.7483 10.846 0.248
26.7769 11.697 0.254
26.8055 12.357 0.258
26.8341 13.284 0.264
26.8626 14.555 0.273
26.8912 14.452 0.272
26.9198 16.105 0.282
26.9484 16.060 0.282
26.9770 17.044 0.288
27.0055 17.017 0.288
27.0341 18.018 0.294
27.0627 17.640 0.292
27.0913 18.110 0.295
27.1199 17.729 0.292
27.1485 17.567 0.291
27.1770 18.016 0.294
27.2056 17.837 0.293
27.2342 16.908 0.288
27.2628 16.566 0.285
27.2914 15.932 0.282
27.3199 15.243 0.277
27.3485 14.345 0.272
27.3771 13.823 0.268
27.4057 13.096 0.264
27.4343 11.879 0.255
27.4628 11.648 0.254
27.4914 10.404 0.245
27.5200 9.365 0.238
27.5486 9.135 0.236
27.5772 7.825 0.226
27.6057 7.303 0.222
27.6343 6.687 0.217
27.6629 6.426 0.215
27.6915 5.755 0.210
27.7201 5.935 0.211
27.7486 5.470 0.207
27.7772 5.167 0.205
27.8058 4.726 0.201
27.8344 5.170 0.205
27.8630 5.309 0.206
27.8916 5.705 0.209
27.9201 6.028 0.212
27.9487 5.840 0.210
27.9773 5.806 0.210
28.0059 6.094 0.213
28.0345 6.122 0.213
28.0630 6.588 0.217
28.0916 7.419 0.223
28.1202 8.777 0.233
28.1488 11.191 0.251
28.1774 12.709 0.261
28.2059 15.213 0.277
28.2345 17.700 0.292
28.2631 21.045 0.312
28.2917 23.220 0.323
28.3203 21.242 0.313
28.3488 19.240 0.301
28.3774 19.995 0.306
28.4060 21.798 0.316
28.4346 24.630 0.331
28.4632 27.291 0.345
28.4917 22.724 0.321
28.5203 15.552 0.279
28.5489 10.925 0.249
28.5775 9.142 0.236
28.6061 9.214 0.236
28.6347 9.675 0.240
28.6632 8.243 0.229
28.6918 5.026 0.203
28.7204 2.619 0.182
28.7490 1.688 0.172
28.7776 1.117 0.167
28.8061 0.682 0.162
28.8347 0.612 0.161
28.8633 0.764 0.163
28.8919 0.736 0.162
28.9205 0.375 0.159
28.9490 0.805 0.163
28.9776 0.659 0.162
29.0062 0.256 0.157
29.0348 0.370 0.158
29.0634 1.026 0.165
29.0919 0.693 0.162
29.1205 0.853 0.163
29.1491 1.027 0.165
29.1777 1.683 0.172
29.2063 1.576 0.171
29.2348 1.688 0.172
29.2634 1.661 0.172
29.2920 1.588 0.171
29.3206 1.655 0.171
29.3492 1.618 0.171
29.3778 2.164 0.176
29.4063 2.432 0.179
29.4349 2.183 0.177
29.4635 2.167 0.176
29.4921 2.252 0.177
29.5207 2.413 0.179
29.5492 2.622 0.181
29.5778 3.412 0.188
29.6064 3.997 0.193
29.6350 5.228 0.204
29.6636 6.417 0.214
29.6921 8.329 0.229
29.7207 9.261 0.236
29.7493 11.725 0.253
29.7779 12.870 0.261
29.8065 11.775 0.253
29.8350 8.756 0.232
29.8636 7.054 0.219
29.8922 5.976 0.210
29.9208 5.725 0.208
29.9494 6.388 0.213
29.9779 6.175 0.211
30.0065 4.327 0.196
30.0351 2.580 0.179
30.0637 1.215 0.166
30.0923 0.940 0.163
30.1209 0.631 0.159
30.1494 0.308 0.155
30.1780 0.495 0.157
30.2066 0.672 0.159
30.2352 0.262 0.155
30.2638 0.231 0.154
30.2923 0.398 0.156
30.3209 0.152 0.153
30.3495 0.343 0.155
30.3781 0.097 0.152
30.4067 0.393 0.156
30.4352 0.178 0.153
30.4638 0.442 0.156
30.4924 0.599 0.158
30.5210 0.434 0.156
30.5496 0.653 0.158
30.5781 0.717 0.159
30.6067 0.975 0.161
30.6353 0.667 0.158
30.6639 1.054 0.162
30.6925 0.972 0.161
30.7210 1.137 0.163
30.7496 1.267 0.164
30.7782 1.435 0.166
30.8068 1.704 0.169
30.8354 2.001 0.171
30.8639 2.037 0.172
30.8925 2.387 0.175
30.9211 2.476 0.176
30.9497 2.613 0.177
30.9783 2.980 0.181
31.0069 3.059 0.181
31.0354 3.193 0.183
31.0640 3.379 0.184
31.0926 3.854 0.189
31.1212 4.107 0.191
31.1498 4.387 0.193
31.1783 4.519 0.194
31.2069 4.539 0.194
31.2355 4.809 0.197
31.2641 4.462 0.194
31.2927 4.816 0.197
31.3212 4.753 0.196
31.3498 4.791 0.196
31.3784 5.027 0.198
31.4070 4.541 0.194
31.4356 4.472 0.193
31.4641 4.239 0.191
31.4927 4.028 0.189
31.5213 4.549 0.193
31.5499 4.268 0.191
31.5785 3.459 0.183
31.6070 3.457 0.183
31.6356 2.818 0.177
31.6642 2.805 0.177
31.6928 2.400 0.172
31.7214 2.634 0.175
31.7500 1.708 0.165
31.7785 2.018 0.168
31.8071 1.658 0.164
31.8357 1.135 0.159
31.8643 1.296 0.160
31.8929 0.978 0.157
31.9214 0.820 0.155
31.9500 0.408 0.150
31.9786 0.396 0.150
32.0072 0.238 0.148
32.0358 0.209 0.147
32.0643 0.336 0.148
32.0929 -0.141 0.143
32.1215 -0.142 0.142
32.1501 0.220 0.147
32.1787 0.315 0.148
32.2072 0.146 0.146
32.2358 0.005 0.144
32.2644 0.076 0.145
32.2930 -0.026 0.144
32.3216 -0.017 0.144
32.3501 -0.092 0.143
32.3787 0.236 0.147
32.4073 0.110 0.145
32.4359 -0.152 0.142
32.4645 -0.004 0.144
32.4931 0.203 0.146
32.5216 0.431 0.149
32.5502 0.521 0.150
32.5788 0.714 0.152
32.6074 0.491 0.150
32.6360 0.546 0.150
32.6645 0.604 0.151
32.6931 0.534 0.150
32.7217 1.062 0.156
32.7503 0.908 0.154
32.7789 1.252 0.158
32.8074 1.255 0.158
32.8360 1.418 0.160
32.8646 1.425 0.160
32.8932 1.848 0.164
32.9218 2.289 0.169
32.9503 2.647 0.172
32.9789 2.519 0.171
33.0075 2.683 0.173
33.0361 3.537 0.181
33.0647 4.447 0.190
33.0932 4.802 0.193
33.1218 5.796 0.201
33.1504 5.977 0.203
33.1790 5.169 0.196
33.2076 5.351 0.197
33.2362 5.317 0.197
33.2647 5.568 0.199
33.2933 6.545 0.208
33.3219 6.529 0.207
33.3505 7.020 0.211
33.3791 7.361 0.214
33.4076 7.245 0.213
33.4362 7.771 0.217
33.4648 7.509 0.215
33.4934 6.646 0.208
33.5220 5.707 0.200
33.5505 4.643 0.191
33.5791 3.898 0.184
33.6077 3.248 0.177
33.6363 3.646 0.181
33.6649 3.207 0.177
33.6934 2.334 0.168
33.7220 2.080 0.165
33.7506 1.454 0.158
33.7792 0.988 0.153
33.8078 0.560 0.148
33.8363 0.150 0.143
33.8649 -0.007 0.141
33.8935 -0.140 0.140
33.9221 0.072 0.142
33.9507 -0.014 0.141
33.9793 -0.125 0.140
34.0078 -0.086 0.140
34.0364 0.025 0.141
34.0650 0.074 0.142
34.0936 -0.099 0.140
34.1222 0.232 0.144
34.1507 0.205 0.143
34.1793 0.161 0.143
34.2079 0.294 0.144
34.2365 0.687 0.149
34.2651 0.327 0.145
34.2936 0.572 0.147
34.3222 0.222 0.143
34.3508 0.279 0.144
34.3794 0.725 0.149
34.4080 1.088 0.153
34.4365 0.986 0.152
34.4651 1.338 0.156
34.4937 1.152 0.154
34.5223 1.557 0.158
34.5509 1.417 0.157
34.5794 1.676 0.159
34.6080 2.244 0.165
34.6366 2.493 0.168
34.6652 3.117 0.174
34.6938 3.609 0.179
34.7224 4.000 0.183
34.7509 3.419 0.177
34.7795 2.849 0.171
34.8081 2.654 0.169
34.8367 2.952 0.172
34.8653 3.608 0.179
34.8938 4.038 0.183
34.9224 5.114 0.193
34.9510 6.339 0.203
34.9796 6.850 0.207
35.0082 7.614 0.214
35.0367 7.857 0.216
35.0653 6.478 0.204
35.0939 5.027 0.191
35.1225 3.663 0.179
35.1511 3.187 0.174
35.1796 2.830 0.170
35.2082 3.289 0.175
35.2368 3.717 0.179
35.2654 3.749 0.179
35.2940 2.968 0.171
35.3225 1.820 0.159
35.3511 1.376 0.154
35.3797 0.985 0.149
35.4083 0.923 0.149
35.4369 0.765 0.147
35.4655 0.766 0.147
35.4940 0.462 0.143
35.5226 0.793 0.147
35.5512 1.055 0.150
35.5798 1.185 0.151
35.6084 0.993 0.149
35.6369 1.140 0.150
35.6655 0.850 0.147
35.6941 1.141 0.150
35.7227 1.212 0.151
35.7513 1.871 0.158
35.7798 2.282 0.163
35.8084 2.552 0.165
35.8370 3.287 0.173
35.8656 3.710 0.177
35.8942 4.428 0.184
35.9227 4.416 0.183
35.9513 3.669 0.176
35.9799 3.384 0.173
36.0085 3.043 0.170
36.0371 2.907 0.168
36.0656 3.417 0.173
36.0942 3.465 0.174
36.1228 3.923 0.178
36.1514 3.597 0.175
36.1800 2.986 0.168
36.2086 2.114 0.159
36.2371 1.791 0.155
36.2657 1.354 0.150
36.2943 1.174 0.148
36.3229 0.983 0.146
36.3515 1.067 0.147
36.3800 0.977 0.145
36.4086 0.895 0.144
36.4372 0.663 0.141
36.4658 0.379 0.138
36.4944 0.369 0.137
36.5229 0.037 0.133
36.5515 0.159 0.134
36.5801 0.268 0.136
36.6087 -0.057 0.131
36.6373 0.111 0.133
36.6658 0.116 0.133
36.6944 0.246 0.135
36.7230 0.112 0.133
36.7516 0.006 0.131
36.7802 0.018 0.131
36.8087 0.180 0.133
36.8373 0.265 0.134
36.8659 -0.129 0.129
36.8945 0.230 0.133
36.9231 0.172 0.133
36.9517 0.198 0.133
36.9802 0.151 0.132
37.0088 0.239 0.133
37.0374 0.192 0.132
37.0660 0.044 0.130
37.0946 0.126 0.131
37.1231 0.135 0.131
37.1517 0.105 0.130
37.1803 -0.069 0.128
37.2089 0.157 0.131
37.2375 0.040 0.129
37.2660 0.194 0.131
37.2946 0.026 0.129
37.3232 0.336 0.133
37.3518 0.257 0.132
37.3804 0.485 0.135
37.4089 -0.038 0.128
37.4375 -0.012 0.129
37.4661 0.285 0.132
37.4947 0.186 0.131
37.5233 0.111 0.130
37.5518 0.162 0.131
37.5804 0.171 0.131
37.6090 0.437 0.134
37.6376 0.242 0.132
37.6662 0.192 0.131
37.6947 -0.014 0.128
37.7233 0.304 0.132
37.7519 -0.085 0.127
37.7805 0.174 0.131
37.8091 0.153 0.130
37.8377 0.183 0.131
37.8662 0.159 0.130
37.8948 0.002 0.128
37.9234 0.175 0.131
37.9520 0.286 0.132
37.9806 -0.054 0.127
38.0091 -0.246 0.125
38.0377 0.039 0.129
38.0663 0.154 0.130
38.0949 0.161 0.130
38.1235 0.005 0.128
38.1520 -0.120 0.126
38.1806 0.360 0.133
38.2092 -0.004 0.128
38.2378 0.146 0.130
38.2664 0.546 0.135
38.2949 0.460 0.134
38.3235 0.502 0.134
38.3521 0.520 0.134
38.3807 0.761 0.137
38.4093 0.811 0.138
38.4378 0.697 0.136
38.4664 0.848 0.138
38.4950 0.755 0.137
38.5236 0.809 0.138
38.5522 0.939 0.139
38.5808 1.309 0.144
38.6093 1.456 0.145
38.6379 1.208 0.142
38.6665 0.814 0.137
38.6951 1.479 0.145
38.7237 1.599 0.147
38.7522 2.174 0.153
38.7808 2.843 0.161
38.8094 3.168 0.164
38.8380 3.914 0.172
38.8666 4.229 0.175
38.8951 3.971 0.172
38.9237 4.217 0.175
38.9523 3.942 0.172
38.9809 3.052 0.163
39.0095 2.239 0.154
39.0380 1.968 0.150
39.0666 2.113 0.152
39.0952 1.946 0.150
39.1238 2.258 0.153
39.1524 2.081 0.151
39.1809 2.098 0.151
39.2095 1.390 0.143
39.2381 1.053 0.139
39.2667 0.574 0.133
39.2953 0.286 0.129
39.3239 0.314 0.129
39.3524 0.207 0.127
39.3810 0.072 0.125
39.4096 -0.017 0.124
39.4382 0.105 0.126
39.4668 0.193 0.127
39.4953 -0.046 0.123
39.5239 0.014 0.124
39.5525 0.029 0.124
39.5811 -0.100 0.122
39.6097 -0.080 0.123
39.6382 0.086 0.125
39.6668 0.196 0.126
39.6954 -0.007 0.123
39.7240 -0.247 0.120
39.7526 -0.081 0.122
39.7811 0.067 0.124
39.8097 -0.086 0.122
39.8383 0.160 0.126
39.8669 0.066 0.124
39.8955 0.076 0.124
39.9240 0.058 0.124
39.9526 0.312 0.128
39.9812 0.377 0.128
40.0098 0.051 0.124
40.0384 0.450 0.129
40.0670 0.523 0.130
40.0955 0.399 0.128
40.1241 0.465 0.129
40.1527 0.340 0.128
40.1813 0.633 0.131
40.2099 0.432 0.129
40.2384 0.669 0.132
40.2670 0.735 0.133
40.2956 0.951 0.135
40.3242 0.706 0.132
40.3528 0.780 0.133
40.3813 0.930 0.135
40.4099 0.959 0.135
40.4385 1.228 0.139
40.4671 1.892 0.147
40.4957 1.970 0.147
40.5242 2.510 0.154
40.5528 3.008 0.159
40.5814 2.905 0.158
40.6100 2.997 0.159
40.6386 2.777 0.156
40.6671 2.144 0.149
40.6957 1.982 0.147
40.7243 1.405 0.140
40.7529 1.494 0.141
40.7815 1.298 0.139
40.8101 1.464 0.141
40.8386 1.636 0.143
40.8672 1.889 0.146
40.8958 1.416 0.140
40.9244 1.089 0.136
40.9530 0.828 0.132
40.9815 0.448 0.127
41.0101 0.545 0.128
41.0387 0.319 0.125
41.0673 0.256 0.124
41.0959 0.398 0.126
41.1244 0.172 0.123
41.1530 0.228 0.123
41.1816 0.096 0.121
41.2102 0.072 0.121
41.2388 0.527 0.127
41.2673 0.395 0.125
41.2959 0.771 0.130
41.3245 0.563 0.127
41.3531 0.775 0.130
41.3817 0.741 0.130
41.4102 0.811 0.130
41.4388 0.527 0.127
41.4674 0.333 0.124
41.4960 0.293 0.123
41.5246 0.231 0.122
41.5532 0.278 0.123
41.5817 0.411 0.124
41.6103 0.172 0.121
41.6389 0.420 0.124
41.6675 0.193 0.121
41.6961 0.243 0.122
41.7246 0.300 0.122
41.7532 0.034 0.118
41.7818 0.119 0.119
41.8104 -0.143 0.115
41.8390 -0.175 0.115
41.8675 0.167 0.120
41.8961 0.259 0.121
41.9247 0.029 0.118
41.9533 -0.017 0.117
41.9819 0.072 0.118
42.0104 -0.124 0.115
42.0390 0.275 0.121
42.0676 0.087 0.118
42.0962 -0.195 0.114
42.1248 0.155 0.119
42.1533 -0.124 0.115
42.1819 0.292 0.121
42.2105 -0.125 0.114
42.2391 0.005 0.116
42.2677 -0.096 0.115
42.2963 -0.019 0.116
42.3248 -0.043 0.115
42.3534 0.009 0.116
42.3820 -0.220 0.113
42.4106 0.041 0.116
42.4392 0.093 0.117
42.4677 0.198 0.119
42.4963 -0.020 0.115
42.5249 0.248 0.119
42.5535 0.102 0.117
42.5821 0.037 0.116
42.6106 -0.115 0.114
42.6392 -0.114 0.114
42.6678 0.087 0.117
42.6964 0.020 0.116
42.7250 0.071 0.116
42.7535 0.112 0.117
42.7821 0.299 0.120
42.8107 0.013 0.116
42.8393 0.034 0.116
42.8679 0.120 0.117
42.8964 0.033 0.116
42.9250 0.227 0.119
42.9536 0.116 0.117
42.9822 -0.110 0.114
43.0108 0.053 0.116
43.0394 -0.005 0.115
43.0679 0.279 0.120
43.0965 0.076 0.117
43.1251 0.123 0.118
43.1537 -0.024 0.115
43.1823 0.127 0.118
43.2108 0.074 0.117
43.2394 0.028 0.116
43.2680 0.131 0.118
43.2966 0.124 0.118
43.3252 0.484 0.123
43.3537 -0.024 0.116
43.3823 -0.076 0.115
43.4109 0.097 0.118
43.4395 -0.011 0.116
43.4681 0.047 0.117
43.4966 0.127 0.118
43.5252 -0.040 0.116
43.5538 0.168 0.119
43.5824 0.217 0.120
43.6110 0.116 0.119
43.6395 0.474 0.124
43.6681 0.530 0.125
43.6967 0.440 0.123
43.7253 0.923 0.130
43.7539 0.649 0.126
43.7825 0.872 0.129
43.8110 1.123 0.133
43.8396 1.262 0.135
43.8682 1.038 0.132
43.8968 1.410 0.137
43.9254 1.192 0.134
43.9539 1.259 0.135
43.9825 1.205 0.134
44.0111 1.536 0.138
44.0397 1.506 0.138
44.0683 1.730 0.141
44.0968 2.200 0.146
44.1254 2.389 0.149
44.1540 2.613 0.151
44.1826 2.952 0.155
44.2112 3.662 0.163
44.2397 3.619 0.162
44.2683 3.808 0.164
44.2969 3.547 0.162
44.3255 3.354 0.160
44.3541 3.003 0.156
44.3826 2.637 0.152
44.4112 2.733 0.153
44.4398 2.847 0.154
44.4684 3.037 0.156
44.4970 2.974 0.156
44.5255 3.049 0.156
44.5541 3.278 0.159
44.5827 3.232 0.158
44.6113 2.545 0.151
44.6399 2.034 0.145
44.6685 1.850 0.142
44.6970 1.339 0.136
44.7256 0.954 0.131
44.7542 0.985 0.131
44.7828 0.905 0.130
44.8114 1.061 0.132
44.8399 0.892 0.130
44.8685 1.073 0.133
44.8971 0.899 0.130
44.9257 0.577 0.126
44.9543 0.543 0.125
44.9828 0.585 0.126
45.0114 0.721 0.128
45.0400 0.441 0.124
45.0686 0.647 0.127
45.0972 0.780 0.129
45.1257 0.531 0.125
45.1543 0.782 0.129
45.1829 0.895 0.130
45.2115 1.257 0.135
45.2401 1.241 0.135
45.2686 1.368 0.136
45.2972 1.925 0.143
45.3258 1.850 0.142
45.3544 1.943 0.143
45.3830 2.226 0.147
45.4116 2.613 0.151
45.4401 2.789 0.153
45.4687 3.878 0.165
45.4973 3.918 0.165
45.5259 4.420 0.171
45.5545 4.343 0.170
45.5830 4.509 0.171
45.6116 4.265 0.169
45.6402 4.011 0.166
45.6688 3.850 0.165
45.6974 4.363 0.170
45.7259 4.915 0.175
45.7545 5.210 0.178
45.7831 5.240 0.179
45.8117 5.136 0.177
45.8403 4.802 0.174
45.8688 4.094 0.167
45.8974 3.066 0.156
45.9260 2.854 0.153
45.9546 1.903 0.142
45.9832 1.976 0.143
46.0117 2.081 0.144
46.0403 2.168 0.145
46.0689 2.175 0.145
46.0975 2.079 0.144
46.1261 2.003 0.143
46.1547 1.195 0.133
46.1832 1.213 0.133
46.2118 0.967 0.130
46.2404 0.826 0.128
46.2690 0.817 0.128
46.2976 0.679 0.126
46.3261 0.808 0.127
46.3547 0.897 0.128
46.3833 1.051 0.130
46.4119 1.490 0.136
46.4405 1.241 0.133
46.4690 1.410 0.135
46.4976 1.418 0.135
46.5262 1.938 0.141
46.5548 1.818 0.140
46.5834 1.653 0.138
46.6119 1.555 0.136
46.6405 1.550 0.136
46.6691 1.900 0.141
46.6977 1.780 0.139
46.7263 1.349 0.134
46.7548 1.410 0.134
46.7834 1.177 0.131
46.8120 0.961 0.128
46.8406 0.762 0.125
46.8692 0.907 0.127
46.8978 0.657 0.124
46.9263 0.688 0.124
46.9549 0.614 0.123
46.9835 0.784 0.125
47.0121 0.430 0.120
47.0407 0.558 0.122
47.0692 0.322 0.118
47.0978 0.114 0.115
47.1264 -0.094 0.112
47.1550 -0.084 0.112
47.1836 0.045 0.114
47.2121 0.150 0.115
47.2407 0.039 0.113
47.2693 -0.019 0.112
47.2979 0.098 0.114
47.3265 0.008 0.113
47.3550 -0.101 0.111
47.3836 0.097 0.114
47.4122 -0.022 0.112
47.4408 0.297 0.117
47.4694 0.235 0.116
47.4979 -0.154 0.109
47.5265 -0.012 0.112
47.5551 0.037 0.112
47.5837 0.009 0.112
47.6123 0.245 0.115
47.6409 0.082 0.113
47.6694 0.322 0.116
47.6980 0.246 0.115
47.7266 0.046 0.112
47.7552 -0.079 0.110
47.7838 0.068 0.112
47.8123 0.263 0.115
47.8409 0.295 0.115
47.8695 0.265 0.114
47.8981 -0.044 0.110
47.9267 -0.002 0.110
47.9552 0.283 0.115
47.9838 0.012 0.110
48.0124 -0.130 0.108
48.0410 0.211 0.113
48.0696 0.048 0.111
48.0981 0.122 0.112
48.1267 -0.084 0.108
48.1553 0.123 0.112
48.1839 -0.180 0.107
48.2125 -0.052 0.109
48.2410 0.055 0.111
48.2696 0.064 0.111
48.2982 0.008 0.110
48.3268 0.101 0.112
48.3554 0.261 0.114
48.3840 0.309 0.115
48.4125 0.344 0.116
48.4411 -0.066 0.109
48.4697 0.239 0.114
48.4983 0.319 0.116
48.5269 0.194 0.114
48.5554 0.267 0.115
48.5840 0.084 0.112
48.6126 0.195 0.114
48.6412 0.664 0.121
48.6698 0.273 0.115
48.6983 0.443 0.118
48.7269 0.406 0.117
48.7555 0.591 0.120
48.7841 0.630 0.121
48.8127 0.676 0.121
48.8412 0.687 0.121
48.8698 0.994 0.126
48.8984 1.054 0.127
48.9270 1.445 0.132
48.9556 1.536 0.133
48.9841 1.496 0.133
49.0127 1.487 0.133
49.0413 1.183 0.129
49.0699 0.841 0.124
49.0985 0.906 0.125
49.1271 0.911 0.125
49.1556 0.507 0.119
49.1842 0.453 0.118
49.2128 0.751 0.123
49.2414 0.708 0.122
49.2700 0.832 0.124
49.2985 0.612 0.121
49.3271 0.868 0.124
49.3557 0.558 0.120
49.3843 0.582 0.120
49.4129 0.362 0.117
49.4414 0.379 0.117
49.4700 0.219 0.115
49.4986 0.138 0.114
49.5272 0.121 0.114
49.5558 0.224 0.115
49.5843 0.190 0.115
49.6129 0.089 0.113
49.6415 0.165 0.114
49.6701 0.228 0.115
49.6987 0.280 0.116
49.7272 0.311 0.116
49.7558 0.360 0.117
49.7844 0.586 0.120
49.8130 0.472 0.119
49.8416 0.483 0.119
49.8702 0.658 0.121
49.8987 0.766 0.123
49.9273 0.892 0.125
49.9559 1.285 0.130
49.9845 1.484 0.133
50.0131 1.607 0.134
50.0416 1.889 0.138
50.0702 1.661 0.135
50.0988 1.569 0.134
50.1274 1.643 0.135
50.1560 1.492 0.133
50.1845 1.487 0.133
50.2131 2.075 0.140
50.2417 2.066 0.140
50.2703 2.426 0.144
50.2989 2.539 0.146
50.3274 2.961 0.151
50.3560 3.633 0.158
50.3846 3.931 0.161
50.4132 3.784 0.160
50.4418 3.251 0.154
50.4703 2.955 0.150
50.4989 2.607 0.146
50.5275 2.259 0.142
50.5561 1.876 0.137
50.5847 1.692 0.135
50.6133 1.955 0.138
50.6418 1.968 0.138
50.6704 2.232 0.142
50.6990 2.433 0.144
50.7276 2.412 0.144
50.7562 2.130 0.140
50.7847 1.894 0.137
50.8133 1.477 0.132
50.8419 1.266 0.129
50.8705 1.040 0.126
50.8991 1.113 0.127
50.9276 0.937 0.124
50.9562 0.906 0.124
50.9848 0.861 0.123
51.0134 0.855 0.123
51.0420 0.960 0.124
51.0705 1.124 0.126
51.0991 0.941 0.124
51.1277 0.674 0.120
51.1563 0.651 0.120
51.1849 0.857 0.123
51.2134 1.091 0.126
51.2420 1.161 0.127
51.2706 1.142 0.126
51.2992 1.255 0.128
51.3278 1.332 0.129
51.3563 1.091 0.125
51.3849 1.034 0.125
51.4135 0.796 0.121
51.4421 0.555 0.117
51.4707 0.532 0.117
51.4993 0.420 0.115
51.5278 0.450 0.116
51.5564 0.469 0.116
51.5850 0.309 0.113
51.6136 0.603 0.118
51.6422 0.779 0.120
51.6707 0.771 0.120
51.6993 0.395 0.114
51.7279 0.099 0.110
51.7565 0.078 0.109
51.7851 0.008 0.108
51.8136 0.080 0.109
51.8422 0.038 0.108
51.8708 0.102 0.109
51.8994 -0.007 0.107
51.9280 0.090 0.109
51.9565 0.088 0.109
51.9851 0.091 0.109
52.0137 0.212 0.110
52.0423 -0.029 0.107
52.0709 -0.064 0.106
52.0994 0.060 0.108
52.1280 -0.037 0.106
52.1566 -0.045 0.106
52.1852 -0.118 0.105
52.2138 0.168 0.109
52.2424 -0.087 0.105
52.2709 -0.071 0.106
52.2995 -0.079 0.105
52.3281 0.197 0.110
52.3567 0.082 0.108
52.3853 0.035 0.108
52.4138 0.125 0.109
52.4424 -0.130 0.105
52.4710 -0.020 0.107
52.4996 0.181 0.110
52.5282 -0.011 0.107
52.5567 0.015 0.108
52.5853 0.084 0.109
52.6139 0.201 0.111
52.6425 -0.120 0.107
52.6711 0.161 0.112
52.6996 0.045 0.110
52.7282 0.243 0.114
52.7568 -0.022 0.110
52.7854 0.065 0.112
52.8140 0.169 0.114
52.8425 0.090 0.114
52.8640 0.000 0.113