File: Data/XRD/NMC_3_GM_10tt50tt_05ts_6ks_exported.xye
'Id: "" Comment: "" Operator: "Lab Manager" Anode: "Mo" Scantype: "Coupled TwoTheta/Theta" TimePerStep: "288" X: "9999" Y: "9999" Z: "9999"
10.0000 33.955 0.343
10.0286 34.667 0.347
10.0572 33.316 0.340
10.0857 33.438 0.341
10.1143 33.153 0.339
10.1429 32.330 0.335
10.1715 32.931 0.338
10.2001 32.153 0.334
10.2286 32.368 0.335
10.2572 32.545 0.336
10.2858 31.288 0.330
10.3144 31.771 0.332
10.3430 31.774 0.332
10.3715 31.361 0.330
10.4001 31.715 0.332
10.4287 31.351 0.330
10.4573 30.677 0.326
10.4859 30.354 0.325
10.5145 31.010 0.328
10.5430 30.514 0.326
10.5716 30.566 0.326
10.6002 30.052 0.323
10.6288 30.413 0.325
10.6574 30.448 0.325
10.6859 30.559 0.326
10.7145 29.924 0.322
10.7431 29.760 0.321
10.7717 29.753 0.321
10.8003 29.392 0.319
10.8288 29.059 0.318
10.8574 29.462 0.320
10.8860 29.660 0.321
10.9146 29.420 0.320
10.9432 29.177 0.318
10.9717 29.403 0.320
11.0003 29.521 0.320
11.0289 29.785 0.322
11.0575 28.483 0.314
11.0861 29.764 0.321
11.1146 29.219 0.319
11.1432 28.976 0.317
11.1718 29.514 0.320
11.2004 29.073 0.318
11.2290 29.497 0.320
11.2576 29.399 0.320
11.2861 28.924 0.317
11.3147 29.267 0.319
11.3433 29.163 0.318
11.3719 29.663 0.321
11.4005 29.302 0.319
11.4290 29.194 0.318
11.4576 29.243 0.319
11.4862 29.628 0.321
11.5148 29.170 0.318
11.5434 28.906 0.317
11.5719 28.934 0.317
11.6005 29.309 0.319
11.6291 28.979 0.317
11.6577 28.955 0.317
11.6863 29.316 0.319
11.7148 28.757 0.316
11.7434 29.160 0.318
11.7720 29.670 0.321
11.8006 28.962 0.317
11.8292 29.597 0.321
11.8577 29.236 0.319
11.8863 29.635 0.321
11.9149 29.375 0.319
11.9435 29.382 0.319
11.9721 29.306 0.319
12.0007 29.000 0.317
12.0292 29.215 0.318
12.0578 30.267 0.324
12.0864 28.656 0.315
12.1150 29.569 0.320
12.1436 29.309 0.319
12.1721 29.035 0.318
12.2007 29.545 0.320
12.2293 29.858 0.322
12.2579 29.434 0.320
12.2865 29.278 0.319
12.3150 29.069 0.318
12.3436 29.667 0.321
12.3722 29.816 0.322
12.4008 29.479 0.320
12.4294 29.792 0.322
12.4579 29.132 0.318
12.4865 29.385 0.319
12.5151 29.316 0.319
12.5437 29.229 0.319
12.5723 29.316 0.319
12.6008 29.951 0.322
12.6294 29.372 0.319
12.6580 28.684 0.316
12.6866 28.854 0.317
12.7152 29.597 0.321
12.7438 29.490 0.320
12.7723 29.333 0.319
12.8009 29.260 0.319
12.8295 29.094 0.318
12.8581 29.253 0.319
12.8867 28.632 0.315
12.9152 28.854 0.317
12.9438 28.497 0.315
12.9724 29.045 0.318
13.0010 28.642 0.315
13.0296 28.490 0.315
13.0581 28.556 0.315
13.0867 28.378 0.314
13.1153 28.188 0.313
13.1439 28.205 0.313
13.1725 28.097 0.312
13.2010 28.330 0.314
13.2296 27.444 0.309
13.2582 28.139 0.313
13.2868 27.507 0.309
13.3154 28.278 0.313
13.3439 27.330 0.308
13.3725 27.368 0.308
13.4011 26.767 0.305
13.4297 27.455 0.309
13.4583 27.052 0.306
13.4869 26.663 0.304
13.5154 26.177 0.301
13.5440 26.191 0.302
13.5726 26.771 0.305
13.6012 26.097 0.301
13.6298 26.288 0.302
13.6583 25.837 0.300
13.6869 25.993 0.300
13.7155 26.149 0.301
13.7441 26.042 0.301
13.7727 25.372 0.297
13.8012 25.073 0.295
13.8298 25.385 0.297
13.8584 25.215 0.296
13.8870 24.823 0.294
13.9156 24.799 0.293
13.9441 24.875 0.294
13.9727 24.392 0.291
14.0013 24.267 0.290
14.0299 23.976 0.289
14.0585 24.892 0.294
14.0870 24.028 0.289
14.1156 24.549 0.292
14.1442 23.792 0.287
14.1728 24.160 0.290
14.2014 23.819 0.288
14.2300 23.184 0.284
14.2585 23.010 0.283
14.2871 23.385 0.285
14.3157 23.007 0.283
14.3443 22.882 0.282
14.3729 22.569 0.280
14.4014 22.719 0.281
14.4300 22.365 0.279
14.4586 21.920 0.276
14.4872 22.375 0.279
14.5158 22.431 0.279
14.5443 21.566 0.274
14.5729 21.660 0.274
14.6015 21.389 0.273
14.6301 21.611 0.274
14.6587 21.347 0.272
14.6872 21.431 0.273
14.7158 21.056 0.270
14.7444 20.979 0.270
14.7730 20.670 0.268
14.8016 20.427 0.266
14.8301 20.253 0.265
14.8587 20.656 0.268
14.8873 20.726 0.268
14.9159 19.462 0.260
14.9445 19.392 0.259
14.9731 20.007 0.264
15.0016 19.847 0.263
15.0302 19.438 0.260
15.0588 19.319 0.259
15.0874 19.160 0.258
15.1160 19.313 0.259
15.1445 19.170 0.258
15.1731 19.135 0.258
15.2017 19.375 0.259
15.2303 18.854 0.256
15.2589 19.003 0.257
15.2874 18.323 0.252
15.3160 18.646 0.254
15.3446 18.191 0.251
15.3732 17.628 0.247
15.4018 17.615 0.247
15.4303 18.233 0.252
15.4589 17.458 0.246
15.4875 17.882 0.249
15.5161 17.701 0.248
15.5447 17.903 0.249
15.5732 17.951 0.250
15.6018 17.632 0.247
15.6304 16.917 0.242
15.6590 17.205 0.244
15.6876 16.910 0.242
15.7162 16.944 0.243
15.7447 17.094 0.244
15.7733 16.583 0.240
15.8019 16.847 0.242
15.8305 16.729 0.241
15.8591 17.042 0.243
15.8876 16.545 0.240
15.9162 17.465 0.246
15.9448 18.063 0.250
15.9734 18.271 0.252
16.0020 18.622 0.254
16.0305 19.608 0.261
16.0591 19.854 0.263
16.0877 19.997 0.264
16.1163 20.260 0.265
16.1449 20.351 0.266
16.1734 20.490 0.267
16.2020 20.333 0.266
16.2306 20.399 0.266
16.2592 19.719 0.262
16.2878 20.198 0.265
16.3163 21.118 0.271
16.3449 22.528 0.280
16.3735 23.698 0.287
16.4021 28.326 0.314
16.4307 31.646 0.331
16.4593 36.163 0.354
16.4878 42.021 0.382
16.5164 49.802 0.416
16.5450 49.910 0.416
16.5736 37.917 0.363
16.6022 32.188 0.334
16.6307 33.444 0.341
16.6593 28.111 0.312
16.6879 21.080 0.271
16.7165 19.222 0.258
16.7451 18.278 0.252
16.7736 18.101 0.251
16.8022 18.219 0.252
16.8308 17.767 0.248
16.8594 18.368 0.253
16.8880 17.861 0.249
16.9165 18.056 0.250
16.9451 18.417 0.253
16.9737 18.649 0.254
17.0023 18.993 0.257
17.0309 19.264 0.259
17.0594 20.031 0.264
17.0880 22.733 0.281
17.1166 24.132 0.289
17.1452 25.153 0.296
17.1738 24.688 0.293
17.2023 26.236 0.302
17.2309 28.969 0.317
17.2595 31.701 0.332
17.2881 27.069 0.307
17.3167 21.538 0.273
17.3453 21.889 0.276
17.3738 21.340 0.272
17.4024 18.479 0.253
17.4310 16.476 0.239
17.4596 15.094 0.229
17.4882 15.069 0.229
17.5167 14.646 0.226
17.5453 14.771 0.226
17.5739 14.531 0.225
17.6025 14.701 0.226
17.6311 14.281 0.223
17.6596 14.569 0.225
17.6882 14.628 0.225
17.7168 14.160 0.222
17.7454 14.372 0.223
17.7740 14.444 0.224
17.8025 14.507 0.224
17.8311 14.538 0.225
17.8597 14.122 0.221
17.8883 13.931 0.220
17.9169 14.059 0.221
17.9454 13.760 0.219
17.9740 13.809 0.219
18.0026 13.729 0.218
18.0312 13.861 0.219
18.0598 13.656 0.218
18.0884 13.993 0.220
18.1169 13.542 0.217
18.1455 13.431 0.216
18.1741 13.924 0.220
18.2027 13.694 0.218
18.2313 13.660 0.218
18.2598 13.392 0.216
18.2884 13.392 0.216
18.3170 13.063 0.213
18.3456 13.434 0.216
18.3742 13.042 0.213
18.4027 13.177 0.214
18.4313 12.962 0.212
18.4599 13.146 0.214
18.4885 13.076 0.213
18.5171 13.153 0.214
18.5456 13.056 0.213
18.5742 13.000 0.212
18.6028 12.872 0.211
18.6314 12.601 0.209
18.6600 12.965 0.212
18.6885 12.684 0.210
18.7171 12.740 0.210
18.7457 12.538 0.209
18.7743 12.535 0.209
18.8029 12.427 0.208
18.8315 12.368 0.207
18.8600 12.778 0.211
18.8886 12.056 0.205
18.9172 12.205 0.206
18.9458 12.128 0.205
18.9744 12.406 0.208
19.0029 12.389 0.207
19.0315 12.316 0.207
19.0601 12.337 0.207
19.0887 12.233 0.206
19.1173 12.375 0.207
19.1458 12.233 0.206
19.1744 12.594 0.209
19.2030 12.542 0.209
19.2316 12.913 0.212
19.2602 13.462 0.216
19.2887 14.087 0.221
19.3173 14.781 0.227
19.3459 16.372 0.238
19.3745 17.948 0.250
19.4031 18.587 0.254
19.4316 19.083 0.257
19.4602 19.965 0.263
19.4888 20.608 0.267
19.5174 20.882 0.269
19.5460 21.458 0.273
19.5746 21.007 0.270
19.6031 20.951 0.270
19.6317 20.177 0.265
19.6603 20.726 0.268
19.6889 20.413 0.266
19.7175 22.132 0.277
19.7460 25.108 0.295
19.7746 29.597 0.321
19.8032 36.097 0.354
19.8318 44.243 0.392
19.8604 52.007 0.425
19.8889 61.910 0.464
19.9175 76.090 0.514
19.9461 75.066 0.511
19.9747 57.316 0.446
20.0033 43.924 0.391
20.0318 42.295 0.383
20.0604 40.799 0.376
20.0890 30.535 0.326
20.1176 19.573 0.261
20.1462 15.493 0.232
20.1747 13.160 0.214
20.2033 12.267 0.206
20.2319 12.375 0.207
20.2605 11.368 0.199
20.2891 10.875 0.194
20.3177 11.000 0.195
20.3462 10.927 0.195
20.3748 11.076 0.196
20.4034 11.111 0.196
20.4320 10.632 0.192
20.4606 10.701 0.193
20.4891 10.465 0.191
20.5177 10.507 0.191
20.5463 10.594 0.192
20.5749 9.990 0.186
20.6035 10.358 0.190
20.6320 10.052 0.187
20.6606 10.132 0.188
20.6892 10.076 0.187
20.7178 10.049 0.187
20.7464 9.941 0.186
20.7749 10.076 0.187
20.8035 9.635 0.183
20.8321 10.035 0.187
20.8607 9.743 0.184
20.8893 9.743 0.184
20.9178 9.448 0.181
20.9464 10.135 0.188
20.9750 9.726 0.184
21.0036 9.510 0.182
21.0322 9.944 0.186
21.0608 9.660 0.183
21.0893 9.955 0.186
21.1179 10.240 0.189
21.1465 10.240 0.189
21.1751 10.236 0.189
21.2037 10.163 0.188
21.2322 10.726 0.193
21.2608 10.587 0.192
21.2894 11.052 0.196
21.3180 11.156 0.197
21.3466 10.747 0.193
21.3751 11.215 0.197
21.4037 10.875 0.194
21.4323 10.583 0.192
21.4609 11.052 0.196
21.4895 11.111 0.196
21.5180 11.573 0.200
21.5466 11.965 0.204
21.5752 12.733 0.210
21.6038 13.955 0.220
21.6324 15.247 0.230
21.6609 16.753 0.241
21.6895 18.573 0.254
21.7181 21.201 0.271
21.7467 21.257 0.272
21.7753 17.007 0.243
21.8039 14.684 0.226
21.8324 14.163 0.222
21.8610 14.729 0.226
21.8896 13.049 0.213
21.9182 10.774 0.193
21.9468 9.691 0.183
21.9753 9.243 0.179
22.0039 9.403 0.181
22.0325 8.747 0.174
22.0611 8.806 0.175
22.0897 8.462 0.171
22.1182 8.951 0.176
22.1468 8.740 0.174
22.1754 8.628 0.173
22.2040 8.545 0.172
22.2326 8.295 0.170
22.2611 8.448 0.171
22.2897 8.608 0.173
22.3183 8.535 0.172
22.3469 8.309 0.170
22.3755 8.701 0.174
22.4040 8.080 0.167
22.4326 8.497 0.172
22.4612 8.361 0.170
22.4898 8.024 0.167
22.5184 8.309 0.170
22.5470 8.139 0.168
22.5755 8.066 0.167
22.6041 8.073 0.167
22.6327 8.191 0.169
22.6613 8.194 0.169
22.6899 7.722 0.164
22.7184 8.226 0.169
22.7470 8.354 0.170
22.7756 7.566 0.162
22.8042 8.073 0.167
22.8328 7.573 0.162
22.8613 7.920 0.166
22.8899 7.590 0.162
22.9185 7.795 0.165
22.9471 7.788 0.164
22.9757 7.882 0.165
23.0042 7.653 0.163
23.0328 7.531 0.162
23.0614 7.691 0.163
23.0900 7.490 0.161
23.1186 7.490 0.161
23.1471 7.417 0.160
23.1757 7.243 0.159
23.2043 7.181 0.158
23.2329 7.649 0.163
23.2615 7.274 0.159
23.2901 7.406 0.160
23.3186 7.299 0.159
23.3472 7.302 0.159
23.3758 7.097 0.157
23.4044 7.073 0.157
23.4330 7.569 0.162
23.4615 6.986 0.156
23.4901 6.819 0.154
23.5187 6.965 0.156
23.5473 6.802 0.154
23.5759 7.094 0.157
23.6044 6.865 0.154
23.6330 7.000 0.156
23.6616 7.247 0.159
23.6902 7.059 0.157
23.7188 6.858 0.154
23.7473 7.021 0.156
23.7759 6.563 0.151
23.8045 6.889 0.155
23.8331 6.573 0.151
23.8617 6.931 0.155
23.8902 6.503 0.150
23.9188 6.979 0.156
23.9474 6.479 0.150
23.9760 6.726 0.153
24.0046 6.458 0.150
24.0331 6.365 0.149
24.0617 6.583 0.151
24.0903 6.847 0.154
24.1189 6.792 0.154
24.1475 6.844 0.154
24.1761 6.542 0.151
24.2046 6.632 0.152
24.2332 6.573 0.151
24.2618 6.434 0.149
24.2904 6.861 0.154
24.3190 6.597 0.151
24.3475 6.757 0.153
24.3761 6.517 0.150
24.4047 6.639 0.152
24.4333 6.691 0.152
24.4619 6.684 0.152
24.4904 6.747 0.153
24.5190 6.764 0.153
24.5476 6.417 0.149
24.5762 6.653 0.152
24.6048 6.486 0.150
24.6333 6.340 0.148
24.6619 6.830 0.154
24.6905 6.278 0.148
24.7191 6.524 0.151
24.7477 6.681 0.152
24.7762 6.514 0.150
24.8048 6.344 0.148
24.8334 6.549 0.151
24.8620 6.413 0.149
24.8906 6.528 0.151
24.9192 6.552 0.151
24.9477 6.469 0.150
24.9763 6.472 0.150
25.0049 6.524 0.151
25.0335 6.306 0.148
25.0621 6.420 0.149
25.0906 6.399 0.149
25.1192 6.642 0.152
25.1478 6.684 0.152
25.1764 6.573 0.151
25.2050 6.792 0.154
25.2335 7.236 0.159
25.2621 7.069 0.157
25.2907 6.972 0.156
25.3193 7.625 0.163
25.3479 8.000 0.167
25.3764 7.788 0.164
25.4050 7.882 0.165
25.4336 8.316 0.170
25.4622 8.340 0.170
25.4908 8.535 0.172
25.5193 8.507 0.172
25.5479 8.497 0.172
25.5765 8.781 0.175
25.6051 9.219 0.179
25.6337 8.792 0.175
25.6623 8.958 0.176
25.6908 9.069 0.177
25.7194 10.128 0.188
25.7480 10.559 0.191
25.7766 11.760 0.202
25.8052 13.087 0.213
25.8337 15.347 0.231
25.8623 16.285 0.238
25.8909 17.167 0.244
25.9195 18.587 0.254
25.9481 19.663 0.261
25.9766 18.483 0.253
26.0052 15.316 0.231
26.0338 13.444 0.216
26.0624 13.285 0.215
26.0910 13.712 0.218
26.1195 12.743 0.210
26.1481 11.125 0.197
26.1767 9.691 0.183
26.2053 8.618 0.173
26.2339 8.177 0.169
26.2624 8.115 0.168
26.2910 8.146 0.168
26.3196 8.191 0.169
26.3482 8.535 0.172
26.3768 8.823 0.175
26.4054 9.313 0.180
26.4339 10.066 0.187
26.4625 10.243 0.189
26.4911 10.927 0.195
26.5197 11.194 0.197
26.5483 11.986 0.204
26.5768 13.010 0.213
26.6054 13.354 0.215
26.6340 14.007 0.221
26.6626 15.128 0.229
26.6912 15.674 0.233
26.7197 16.705 0.241
26.7483 17.698 0.248
26.7769 18.552 0.254
26.8055 19.215 0.258
26.8341 20.146 0.264
26.8626 21.420 0.273
26.8912 21.319 0.272
26.9198 22.976 0.282
26.9484 22.934 0.282
26.9770 23.920 0.288
27.0055 23.896 0.288
27.0341 24.899 0.294
27.0627 24.524 0.292
27.0913 24.997 0.295
27.1199 24.618 0.292
27.1485 24.458 0.291
27.1770 24.910 0.294
27.2056 24.733 0.293
27.2342 23.806 0.288
27.2628 23.465 0.285
27.2914 22.833 0.282
27.3199 22.146 0.277
27.3485 21.250 0.272
27.3771 20.729 0.268
27.4057 20.003 0.264
27.4343 18.788 0.255
27.4628 18.559 0.254
27.4914 17.316 0.245
27.5200 16.278 0.238
27.5486 16.049 0.236
27.5772 14.740 0.226
27.6057 14.219 0.222
27.6343 13.604 0.217
27.6629 13.344 0.215
27.6915 12.674 0.210
27.7201 12.854 0.211
27.7486 12.389 0.207
27.7772 12.087 0.205
27.8058 11.646 0.201
27.8344 12.090 0.205
27.8630 12.229 0.206
27.8916 12.625 0.209
27.9201 12.948 0.212
27.9487 12.760 0.210
27.9773 12.726 0.210
28.0059 13.014 0.213
28.0345 13.042 0.213
28.0630 13.507 0.217
28.0916 14.337 0.223
28.1202 15.694 0.233
28.1488 18.108 0.251
28.1774 19.625 0.261
28.2059 22.128 0.277
28.2345 24.615 0.292
28.2631 27.958 0.312
28.2917 30.132 0.323
28.3203 28.153 0.313
28.3488 26.149 0.301
28.3774 26.903 0.306
28.4060 28.705 0.316
28.4346 31.535 0.331
28.4632 34.194 0.345
28.4917 29.625 0.321
28.5203 22.451 0.279
28.5489 17.823 0.249
28.5775 16.038 0.236
28.6061 16.108 0.236
28.6347 16.566 0.240
28.6632 15.132 0.229
28.6918 11.913 0.203
28.7204 9.503 0.182
28.7490 8.569 0.172
28.7776 7.997 0.167
28.8061 7.559 0.162
28.8347 7.486 0.161
28.8633 7.635 0.163
28.8919 7.604 0.162
28.9205 7.240 0.159
28.9490 7.667 0.163
28.9776 7.517 0.162
29.0062 7.111 0.157
29.0348 7.222 0.158
29.0634 7.875 0.165
29.0919 7.538 0.162
29.1205 7.694 0.163
29.1491 7.865 0.165
29.1777 8.517 0.172
29.2063 8.406 0.171
29.2348 8.514 0.172
29.2634 8.483 0.172
29.2920 8.406 0.171
29.3206 8.469 0.171
29.3492 8.427 0.171
29.3778 8.969 0.176
29.4063 9.233 0.179
29.4349 8.979 0.177
29.4635 8.958 0.176
29.4921 9.038 0.177
29.5207 9.194 0.179
29.5492 9.399 0.181
29.5778 10.184 0.188
29.6064 10.764 0.193
29.6350 11.990 0.204
29.6636 13.174 0.214
29.6921 15.080 0.229
29.7207 16.007 0.236
29.7493 18.465 0.253
29.7779 19.604 0.261
29.8065 18.503 0.253
29.8350 15.479 0.232
29.8636 13.771 0.219
29.8922 12.688 0.210
29.9208 12.431 0.208
29.9494 13.087 0.213
29.9779 12.868 0.211
30.0065 11.014 0.196
30.0351 9.260 0.179
30.0637 7.889 0.166
30.0923 7.608 0.163
30.1209 7.292 0.159
30.1494 6.962 0.155
30.1780 7.142 0.157
30.2066 7.313 0.159
30.2352 6.896 0.155
30.2638 6.858 0.154
30.2923 7.017 0.156
30.3209 6.764 0.153
30.3495 6.948 0.155
30.3781 6.694 0.152
30.4067 6.983 0.156
30.4352 6.760 0.153
30.4638 7.017 0.156
30.4924 7.167 0.158
30.5210 6.993 0.156
30.5496 7.205 0.158
30.5781 7.260 0.159
30.6067 7.510 0.161
30.6353 7.194 0.158
30.6639 7.573 0.162
30.6925 7.483 0.161
30.7210 7.639 0.163
30.7496 7.760 0.164
30.7782 7.920 0.166
30.8068 8.181 0.169
30.8354 8.469 0.171
30.8639 8.497 0.172
30.8925 8.837 0.175
30.9211 8.917 0.176
30.9497 9.045 0.177
30.9783 9.403 0.181
31.0069 9.472 0.181
31.0354 9.597 0.183
31.0640 9.774 0.184
31.0926 10.240 0.189
31.1212 10.483 0.191
31.1498 10.753 0.193
31.1783 10.875 0.194
31.2069 10.885 0.194
31.2355 11.146 0.197
31.2641 10.788 0.194
31.2927 11.132 0.197
31.3212 11.059 0.196
31.3498 11.087 0.196
31.3784 11.313 0.198
31.4070 10.816 0.194
31.4356 10.736 0.193
31.4641 10.493 0.191
31.4927 10.271 0.189
31.5213 10.781 0.193
31.5499 10.490 0.191
31.5785 9.670 0.183
31.6070 9.656 0.183
31.6356 9.007 0.177
31.6642 8.983 0.177
31.6928 8.566 0.172
31.7214 8.788 0.175
31.7500 7.851 0.165
31.7785 8.149 0.168
31.8071 7.778 0.164
31.8357 7.243 0.159
31.8643 7.392 0.160
31.8929 7.063 0.157
31.9214 6.892 0.155
31.9500 6.469 0.150
31.9786 6.444 0.150
32.0072 6.274 0.148
32.0358 6.233 0.147
32.0643 6.347 0.148
32.0929 5.858 0.143
32.1215 5.844 0.142
32.1501 6.205 0.147
32.1787 6.299 0.148
32.2072 6.128 0.146
32.2358 5.986 0.144
32.2644 6.056 0.145
32.2930 5.951 0.144
32.3216 5.958 0.144
32.3501 5.882 0.143
32.3787 6.208 0.147
32.4073 6.080 0.145
32.4359 5.816 0.142
32.4645 5.962 0.144
32.4931 6.167 0.146
32.5216 6.392 0.149
32.5502 6.479 0.150
32.5788 6.670 0.152
32.6074 6.444 0.150
32.6360 6.497 0.150
32.6645 6.552 0.151
32.6931 6.479 0.150
32.7217 7.003 0.156
32.7503 6.847 0.154
32.7789 7.188 0.158
32.8074 7.188 0.158
32.8360 7.347 0.160
32.8646 7.351 0.160
32.8932 7.771 0.164
32.9218 8.208 0.169
32.9503 8.563 0.172
32.9789 8.431 0.171
33.0075 8.590 0.173
33.0361 9.441 0.181
33.0647 10.347 0.190
33.0932 10.698 0.193
33.1218 11.688 0.201
33.1504 11.865 0.203
33.1790 11.052 0.196
33.2076 11.229 0.197
33.2362 11.191 0.197
33.2647 11.438 0.199
33.2933 12.410 0.208
33.3219 12.389 0.207
33.3505 12.875 0.211
33.3791 13.212 0.214
33.4076 13.090 0.213
33.4362 13.611 0.217
33.4648 13.344 0.215
33.4934 12.476 0.208
33.5220 11.531 0.200
33.5505 10.462 0.191
33.5791 9.712 0.184
33.6077 9.056 0.177
33.6363 9.448 0.181
33.6649 9.003 0.177
33.6934 8.125 0.168
33.7220 7.865 0.165
33.7506 7.233 0.158
33.7792 6.760 0.153
33.8078 6.326 0.148
33.8363 5.910 0.143
33.8649 5.747 0.141
33.8935 5.608 0.140
33.9221 5.816 0.142
33.9507 5.726 0.141
33.9793 5.611 0.140
34.0078 5.646 0.140
34.0364 5.753 0.141
34.0650 5.799 0.142
34.0936 5.622 0.140
34.1222 5.948 0.144
34.1507 5.917 0.143
34.1793 5.868 0.143
34.2079 5.997 0.144
34.2365 6.385 0.149
34.2651 6.021 0.145
34.2936 6.260 0.147
34.3222 5.906 0.143
34.3508 5.958 0.144
34.3794 6.399 0.149
34.4080 6.757 0.153
34.4365 6.649 0.152
34.4651 6.997 0.156
34.4937 6.806 0.154
34.5223 7.205 0.158
34.5509 7.059 0.157
34.5794 7.313 0.159
34.6080 7.875 0.165
34.6366 8.118 0.168
34.6652 8.736 0.174
34.6938 9.222 0.179
34.7224 9.608 0.183
34.7509 9.021 0.177
34.7795 8.444 0.171
34.8081 8.243 0.169
34.8367 8.535 0.172
34.8653 9.184 0.179
34.8938 9.608 0.183
34.9224 10.677 0.193
34.9510 11.896 0.203
34.9796 12.399 0.207
35.0082 13.156 0.214
35.0367 13.392 0.216
35.0653 12.007 0.204
35.0939 10.549 0.191
35.1225 9.177 0.179
35.1511 8.694 0.174
35.1796 8.330 0.170
35.2082 8.781 0.175
35.2368 9.201 0.179
35.2654 9.226 0.179
35.2940 8.438 0.171
35.3225 7.281 0.159
35.3511 6.830 0.154
35.3797 6.431 0.149
35.4083 6.361 0.149
35.4369 6.194 0.147
35.4655 6.188 0.147
35.4940 5.875 0.143
35.5226 6.198 0.147
35.5512 6.451 0.150
35.5798 6.573 0.151
35.6084 6.372 0.149
35.6369 6.510 0.150
35.6655 6.212 0.147
35.6941 6.493 0.150
35.7227 6.556 0.151
35.7513 7.205 0.158
35.7798 7.608 0.163
35.8084 7.868 0.165
35.8370 8.594 0.173
35.8656 9.007 0.177
35.8942 9.715 0.184
35.9227 9.694 0.183
35.9513 8.938 0.176
35.9799 8.642 0.173
36.0085 8.292 0.170
36.0371 8.146 0.168
36.0656 8.646 0.173
36.0942 8.684 0.174
36.1228 9.132 0.178
36.1514 8.795 0.175
36.1800 8.174 0.168
36.2086 7.292 0.159
36.2371 6.958 0.155
36.2657 6.510 0.150
36.2943 6.319 0.148
36.3229 6.118 0.146
36.3515 6.191 0.147
36.3800 6.090 0.145
36.4086 5.997 0.144
36.4372 5.753 0.141
36.4658 5.458 0.138
36.4944 5.438 0.137
36.5229 5.094 0.133
36.5515 5.205 0.134
36.5801 5.302 0.136
36.6087 4.965 0.131
36.6373 5.122 0.133
36.6658 5.115 0.133
36.6944 5.233 0.135
36.7230 5.087 0.133
36.7516 4.969 0.131
36.7802 4.969 0.131
36.8087 5.118 0.133
36.8373 5.191 0.134
36.8659 4.785 0.129
36.8945 5.132 0.133
36.9231 5.063 0.133
36.9517 5.076 0.133
36.9802 5.017 0.132
37.0088 5.094 0.133
37.0374 5.035 0.132
37.0660 4.875 0.130
37.0946 4.944 0.131
37.1231 4.941 0.131
37.1517 4.899 0.130
37.1803 4.715 0.128
37.2089 4.941 0.131
37.2375 4.823 0.129
37.2660 4.976 0.131
37.2946 4.806 0.129
37.3232 5.115 0.133
37.3518 5.035 0.132
37.3804 5.260 0.135
37.4089 4.736 0.128
37.4375 4.760 0.129
37.4661 5.056 0.132
37.4947 4.955 0.131
37.5233 4.878 0.130
37.5518 4.927 0.131
37.5804 4.934 0.131
37.6090 5.198 0.134
37.6376 5.000 0.132
37.6662 4.948 0.131
37.6947 4.740 0.128
37.7233 5.056 0.132
37.7519 4.663 0.127
37.7805 4.920 0.131
37.8091 4.896 0.130
37.8377 4.924 0.131
37.8662 4.896 0.130
37.8948 4.736 0.128
37.9234 4.906 0.131
37.9520 5.014 0.132
37.9806 4.670 0.127
38.0091 4.476 0.125
38.0377 4.757 0.129
38.0663 4.868 0.130
38.0949 4.872 0.130
38.1235 4.712 0.128
38.1520 4.583 0.126
38.1806 5.059 0.133
38.2092 4.691 0.128
38.2378 4.837 0.130
38.2664 5.233 0.135
38.2949 5.142 0.134
38.3235 5.181 0.134
38.3521 5.194 0.134
38.3807 5.431 0.137
38.4093 5.476 0.138
38.4378 5.358 0.136
38.4664 5.503 0.138
38.4950 5.406 0.137
38.5236 5.455 0.138
38.5522 5.580 0.139
38.5808 5.944 0.144
38.6093 6.087 0.145
38.6379 5.833 0.142
38.6665 5.434 0.137
38.6951 6.094 0.145
38.7237 6.208 0.147
38.7522 6.778 0.153
38.7808 7.441 0.161
38.8094 7.760 0.164
38.8380 8.500 0.172
38.8666 8.809 0.175
38.8951 8.545 0.172
38.9237 8.785 0.175
38.9523 8.503 0.172
38.9809 7.608 0.163
39.0095 6.788 0.154
39.0380 6.510 0.150
39.0666 6.649 0.152
39.0952 6.476 0.150
39.1238 6.781 0.153
39.1524 6.597 0.151
39.1809 6.608 0.151
39.2095 5.892 0.143
39.2381 5.549 0.139
39.2667 5.063 0.133
39.2953 4.767 0.129
39.3239 4.788 0.129
39.3524 4.674 0.127
39.3810 4.531 0.125
39.4096 4.434 0.124
39.4382 4.549 0.126
39.4668 4.628 0.127
39.4953 4.382 0.123
39.5239 4.434 0.124
39.5525 4.441 0.124
39.5811 4.309 0.122
39.6097 4.326 0.123
39.6382 4.490 0.125
39.6668 4.597 0.126
39.6954 4.392 0.123
39.7240 4.149 0.120
39.7526 4.313 0.122
39.7811 4.458 0.124
39.8097 4.302 0.122
39.8383 4.545 0.126
39.8669 4.448 0.124
39.8955 4.455 0.124
39.9240 4.434 0.124
39.9526 4.684 0.128
39.9812 4.747 0.128
40.0098 4.417 0.124
40.0384 4.813 0.129
40.0670 4.882 0.130
40.0955 4.753 0.128
40.1241 4.816 0.129
40.1527 4.688 0.128
40.1813 4.976 0.131
40.2099 4.771 0.129
40.2384 5.003 0.132
40.2670 5.066 0.133
40.2956 5.278 0.135
40.3242 5.028 0.132
40.3528 5.097 0.133
40.3813 5.243 0.135
40.4099 5.267 0.135
40.4385 5.531 0.139
40.4671 6.191 0.147
40.4957 6.264 0.147
40.5242 6.799 0.154
40.5528 7.292 0.159
40.5814 7.184 0.158
40.6100 7.271 0.159
40.6386 7.045 0.156
40.6671 6.406 0.149
40.6957 6.240 0.147
40.7243 5.656 0.140
40.7529 5.740 0.141
40.7815 5.538 0.139
40.8101 5.698 0.141
40.8386 5.865 0.143
40.8672 6.111 0.146
40.8958 5.632 0.140
40.9244 5.299 0.136
40.9530 5.031 0.132
40.9815 4.646 0.127
41.0101 4.736 0.128
41.0387 4.503 0.125
41.0673 4.434 0.124
41.0959 4.569 0.126
41.1244 4.337 0.123
41.1530 4.385 0.123
41.1816 4.247 0.121
41.2102 4.215 0.121
41.2388 4.663 0.127
41.2673 4.524 0.125
41.2959 4.892 0.130
41.3245 4.677 0.127
41.3531 4.882 0.130
41.3817 4.840 0.130
41.4102 4.903 0.130
41.4388 4.611 0.127
41.4674 4.410 0.124
41.4960 4.361 0.123
41.5246 4.292 0.122
41.5532 4.330 0.123
41.5817 4.455 0.124
41.6103 4.208 0.121
41.6389 4.448 0.124
41.6675 4.212 0.121
41.6961 4.253 0.122
41.7246 4.302 0.122
41.7532 4.028 0.118
41.7818 4.104 0.119
41.8104 3.833 0.115
41.8390 3.792 0.115
41.8675 4.128 0.120
41.8961 4.215 0.121
41.9247 3.979 0.118
41.9533 3.927 0.117
41.9819 4.010 0.118
42.0104 3.809 0.115
42.0390 4.201 0.121
42.0676 4.007 0.118
42.0962 3.719 0.114
42.1248 4.063 0.119
42.1533 3.778 0.115
42.1819 4.188 0.121
42.2105 3.764 0.114
42.2391 3.889 0.116
42.2677 3.785 0.115
42.2963 3.858 0.116
42.3248 3.830 0.115
42.3534 3.878 0.116
42.3820 3.646 0.113
42.4106 3.903 0.116
42.4392 3.951 0.117
42.4677 4.052 0.119
42.4963 3.830 0.115
42.5249 4.094 0.119
42.5535 3.944 0.117
42.5821 3.875 0.116
42.6106 3.719 0.114
42.6392 3.715 0.114
42.6678 3.917 0.117
42.6964 3.851 0.116
42.7250 3.903 0.116
42.7535 3.944 0.117
42.7821 4.132 0.120
42.8107 3.847 0.116
42.8393 3.868 0.116
42.8679 3.955 0.117
42.8964 3.868 0.116
42.9250 4.063 0.119
42.9536 3.951 0.117
42.9822 3.726 0.114
43.0108 3.892 0.116
43.0394 3.840 0.115
43.0679 4.128 0.120
43.0965 3.931 0.117
43.1251 3.983 0.118
43.1537 3.840 0.115
43.1823 3.997 0.118
43.2108 3.948 0.117
43.2394 3.906 0.116
43.2680 4.014 0.118
43.2966 4.010 0.118
43.3252 4.375 0.123
43.3537 3.872 0.116
43.3823 3.823 0.115
43.4109 4.000 0.118
43.4395 3.896 0.116
43.4681 3.958 0.117
43.4966 4.042 0.118
43.5252 3.878 0.116
43.5538 4.090 0.119
43.5824 4.142 0.120
43.6110 4.045 0.119
43.6395 4.406 0.124
43.6681 4.465 0.125
43.6967 4.378 0.123
43.7253 4.865 0.130
43.7539 4.594 0.126
43.7825 4.819 0.129
43.8110 5.073 0.133
43.8396 5.215 0.135
43.8682 4.993 0.132
43.8968 5.368 0.137
43.9254 5.153 0.134
43.9539 5.222 0.135
43.9825 5.170 0.134
44.0111 5.503 0.138
44.0397 5.476 0.138
44.0683 5.701 0.141
44.0968 6.174 0.146
44.1254 6.365 0.149
44.1540 6.590 0.151
44.1826 6.931 0.155
44.2112 7.642 0.163
44.2397 7.601 0.162
44.2683 7.792 0.164
44.2969 7.531 0.162
44.3255 7.340 0.160
44.3541 6.990 0.156
44.3826 6.625 0.152
44.4112 6.722 0.153
44.4398 6.837 0.154
44.4684 7.028 0.156
44.4970 6.965 0.156
44.5255 7.042 0.156
44.5541 7.271 0.159
44.5827 7.226 0.158
44.6113 6.538 0.151
44.6399 6.028 0.145
44.6685 5.844 0.142
44.6970 5.333 0.136
44.7256 4.948 0.131
44.7542 4.979 0.131
44.7828 4.899 0.130
44.8114 5.056 0.132
44.8399 4.885 0.130
44.8685 5.066 0.133
44.8971 4.892 0.130
44.9257 4.569 0.126
44.9543 4.535 0.125
44.9828 4.576 0.126
45.0114 4.712 0.128
45.0400 4.431 0.124
45.0686 4.635 0.127
45.0972 4.767 0.129
45.1257 4.517 0.125
45.1543 4.767 0.129
45.1829 4.878 0.130
45.2115 5.240 0.135
45.2401 5.222 0.135
45.2686 5.347 0.136
45.2972 5.903 0.143
45.3258 5.826 0.142
45.3544 5.917 0.143
45.3830 6.198 0.147
45.4116 6.583 0.151
45.4401 6.757 0.153
45.4687 7.844 0.165
45.4973 7.882 0.165
45.5259 8.382 0.171
45.5545 8.302 0.170
45.5830 8.465 0.171
45.6116 8.219 0.169
45.6402 7.962 0.166
45.6688 7.799 0.165
45.6974 8.309 0.170
45.7259 8.858 0.175
45.7545 9.149 0.178
45.7831 9.177 0.179
45.8117 9.069 0.177
45.8403 8.733 0.174
45.8688 8.021 0.167
45.8974 6.990 0.156
45.9260 6.774 0.153
45.9546 5.819 0.142
45.9832 5.889 0.143
46.0117 5.990 0.144
46.0403 6.073 0.145
46.0689 6.076 0.145
46.0975 5.976 0.144
46.1261 5.896 0.143
46.1547 5.083 0.133
46.1832 5.097 0.133
46.2118 4.847 0.130
46.2404 4.701 0.128
46.2690 4.688 0.128
46.2976 4.545 0.126
46.3261 4.670 0.127
46.3547 4.753 0.128
46.3833 4.903 0.130
46.4119 5.337 0.136
46.4405 5.083 0.133
46.4690 5.247 0.135
46.4976 5.250 0.135
46.5262 5.764 0.141
46.5548 5.639 0.140
46.5834 5.469 0.138
46.6119 5.365 0.136
46.6405 5.354 0.136
46.6691 5.698 0.141
46.6977 5.573 0.139
46.7263 5.135 0.134
46.7548 5.191 0.134
46.7834 4.951 0.131
46.8120 4.729 0.128
46.8406 4.524 0.125
46.8692 4.663 0.127
46.8978 4.406 0.124
46.9263 4.431 0.124
46.9549 4.351 0.123
46.9835 4.514 0.125
47.0121 4.153 0.120
47.0407 4.274 0.122
47.0692 4.031 0.118
47.0978 3.816 0.115
47.1264 3.601 0.112
47.1550 3.604 0.112
47.1836 3.726 0.114
47.2121 3.823 0.115
47.2407 3.705 0.113
47.2693 3.639 0.112
47.2979 3.750 0.114
47.3265 3.653 0.113
47.3550 3.538 0.111
47.3836 3.729 0.114
47.4122 3.604 0.112
47.4408 3.917 0.117
47.4694 3.847 0.116
47.4979 3.451 0.109
47.5265 3.587 0.112
47.5551 3.628 0.112
47.5837 3.594 0.112
47.6123 3.823 0.115
47.6409 3.653 0.113
47.6694 3.885 0.116
47.6980 3.802 0.115
47.7266 3.594 0.112
47.7552 3.462 0.110
47.7838 3.601 0.112
47.8123 3.788 0.115
47.8409 3.813 0.115
47.8695 3.774 0.114
47.8981 3.458 0.110
47.9267 3.497 0.110
47.9552 3.778 0.115
47.9838 3.503 0.110
48.0124 3.358 0.108
48.0410 3.694 0.113
48.0696 3.528 0.111
48.0981 3.597 0.112
48.1267 3.389 0.108
48.1553 3.601 0.112
48.1839 3.302 0.107
48.2125 3.434 0.109
48.2410 3.545 0.111
48.2696 3.559 0.111
48.2982 3.507 0.110
48.3268 3.604 0.112
48.3554 3.767 0.114
48.3840 3.819 0.115
48.4125 3.858 0.116
48.4411 3.451 0.109
48.4697 3.760 0.114
48.4983 3.844 0.116
48.5269 3.722 0.114
48.5554 3.799 0.115
48.5840 3.618 0.112
48.6126 3.733 0.114
48.6412 4.205 0.121
48.6698 3.816 0.115
48.6983 3.990 0.118
48.7269 3.955 0.117
48.7555 4.142 0.120
48.7841 4.184 0.121
48.8127 4.233 0.121
48.8412 4.247 0.121
48.8698 4.556 0.126
48.8984 4.618 0.127
48.9270 5.010 0.132
48.9556 5.104 0.133
48.9841 5.066 0.133
49.0127 5.059 0.133
49.0413 4.757 0.129
49.0699 4.417 0.124
49.0985 4.483 0.125
49.1271 4.490 0.125
49.1556 4.087 0.119
49.1842 4.035 0.118
49.2128 4.333 0.123
49.2414 4.292 0.122
49.2700 4.417 0.124
49.2985 4.198 0.121
49.3271 4.455 0.124
49.3557 4.146 0.120
49.3843 4.170 0.120
49.4129 3.951 0.117
49.4414 3.969 0.117
49.4700 3.809 0.115
49.4986 3.729 0.114
49.5272 3.712 0.114
49.5558 3.816 0.115
49.5843 3.781 0.115
49.6129 3.681 0.113
49.6415 3.757 0.114
49.6701 3.819 0.115
49.6987 3.872 0.116
49.7272 3.903 0.116
49.7558 3.951 0.117
49.7844 4.177 0.120
49.8130 4.063 0.119
49.8416 4.073 0.119
49.8702 4.247 0.121
49.8987 4.354 0.123
49.9273 4.479 0.125
49.9559 4.872 0.130
49.9845 5.069 0.133
50.0131 5.191 0.134
50.0416 5.472 0.138
50.0702 5.243 0.135
50.0988 5.149 0.134
50.1274 5.222 0.135
50.1560 5.069 0.133
50.1845 5.063 0.133
50.2131 5.649 0.140
50.2417 5.639 0.140
50.2703 5.997 0.144
50.2989 6.108 0.146
50.3274 6.528 0.151
50.3560 7.198 0.158
50.3846 7.493 0.161
50.4132 7.344 0.160
50.4418 6.809 0.154
50.4703 6.510 0.150
50.4989 6.160 0.146
50.5275 5.809 0.142
50.5561 5.424 0.137
50.5847 5.236 0.135
50.6133 5.497 0.138
50.6418 5.507 0.138
50.6704 5.767 0.142
50.6990 5.965 0.144
50.7276 5.941 0.144
50.7562 5.656 0.140
50.7847 5.417 0.137
50.8133 4.997 0.132
50.8419 4.781 0.129
50.8705 4.552 0.126
50.8991 4.622 0.127
50.9276 4.441 0.124
50.9562 4.406 0.124
50.9848 4.358 0.123
51.0134 4.347 0.123
51.0420 4.448 0.124
51.0705 4.608 0.126
51.0991 4.420 0.124
51.1277 4.149 0.120
51.1563 4.122 0.120
51.1849 4.323 0.123
51.2134 4.552 0.126
51.2420 4.618 0.127
51.2706 4.594 0.126
51.2992 4.701 0.128
51.3278 4.774 0.129
51.3563 4.528 0.125
51.3849 4.465 0.125
51.4135 4.222 0.121
51.4421 3.976 0.117
51.4707 3.948 0.117
51.4993 3.830 0.115
51.5278 3.854 0.116
51.5564 3.868 0.116
51.5850 3.701 0.113
51.6136 3.990 0.118
51.6422 4.160 0.120
51.6707 4.146 0.120
51.6993 3.764 0.114
51.7279 3.462 0.110
51.7565 3.434 0.109
51.7851 3.358 0.108
51.8136 3.424 0.109
51.8422 3.375 0.108
51.8708 3.434 0.109
51.8994 3.319 0.107
51.9280 3.410 0.109
51.9565 3.403 0.109
51.9851 3.399 0.109
52.0137 3.514 0.110
52.0423 3.267 0.107
52.0709 3.226 0.106
52.0994 3.344 0.108
52.1280 3.240 0.106
52.1566 3.226 0.106
52.1852 3.146 0.105
52.2138 3.438 0.109
52.2424 3.188 0.105
52.2709 3.208 0.106
52.2995 3.205 0.105
52.3281 3.486 0.110
52.3567 3.375 0.108
52.3853 3.333 0.108
52.4138 3.427 0.109
52.4424 3.177 0.105
52.4710 3.292 0.107
52.4996 3.497 0.110
52.5282 3.309 0.107
52.5567 3.344 0.108
52.5853 3.434 0.109
52.6139 3.573 0.111
52.6425 3.274 0.107
52.6711 3.587 0.112
52.6996 3.503 0.110
52.7282 3.733 0.114
52.7568 3.500 0.110
52.7854 3.618 0.112
52.8140 3.753 0.114
52.8425 3.750 0.114
52.8640 3.705 0.113