File: Data/Data_220203_NMC/XRD/220203_NMC_800_exported.xye
'Id: "" Comment: "" Operator: "Lab Manager" Anode: "Mo" Scantype: "Coupled TwoTheta/Theta" TimePerStep: "19.2" X: "9999" Y: "9999" Z: "9999"
10.0000 0.000 2.058
10.0408 -2.422 1.985
10.0817 3.828 2.060
10.1225 4.869 2.068
10.1633 4.662 2.060
10.2041 1.643 2.016
10.2450 3.155 2.030
10.2858 8.054 2.087
10.3266 3.266 2.021
10.3675 1.083 1.987
10.4083 4.265 2.023
10.4491 0.417 1.967
10.4900 2.454 1.988
10.5308 5.222 2.019
10.5716 0.126 1.946
10.6124 -0.647 1.930
10.6533 -1.575 1.912
10.6941 1.196 1.943
10.7349 -0.408 1.916
10.7758 0.124 1.917
10.8166 -0.957 1.897
10.8574 -0.111 1.902
10.8983 -0.007 1.900
10.9391 -1.376 1.880
10.9799 -1.181 1.881
11.0207 -1.871 1.871
11.0616 -0.685 1.886
11.1024 -2.207 1.863
11.1432 -1.176 1.876
11.1841 0.688 1.901
11.2249 0.731 1.900
11.2657 2.181 1.919
11.3065 3.058 1.929
11.3474 2.322 1.918
11.3882 3.305 1.930
11.4290 -1.858 1.858
11.4699 1.546 1.904
11.5107 -0.258 1.878
11.5515 0.439 1.887
11.5924 1.918 1.906
11.6332 5.481 1.953
11.6740 1.597 1.899
11.7148 4.172 1.933
11.7557 6.122 1.958
11.7965 7.448 1.975
11.8373 4.505 1.935
11.8782 7.968 1.980
11.9190 6.015 1.953
11.9598 9.479 1.998
12.0007 5.288 1.941
12.0415 3.129 1.911
12.0823 7.117 1.963
12.1231 8.865 1.985
12.1640 8.010 1.973
12.2048 6.115 1.947
12.2456 6.095 1.945
12.2865 10.346 2.000
12.3273 9.546 1.989
12.3681 11.716 2.016
12.4089 14.251 2.047
12.4498 7.724 1.961
12.4906 8.802 1.974
12.5314 13.474 2.034
12.5723 11.012 2.001
12.6131 12.717 2.022
12.6539 10.308 1.989
12.6948 10.817 1.995
12.7356 10.024 1.983
12.7764 13.607 2.029
12.8172 13.441 2.025
12.8581 15.359 2.049
12.8989 15.507 2.049
12.9397 16.540 2.061
12.9806 10.231 1.978
13.0214 14.339 2.031
13.0622 13.344 2.017
13.1031 13.860 2.022
13.1439 11.824 1.994
13.1847 12.862 2.006
13.2255 12.599 2.002
13.2664 19.680 2.090
13.3072 14.679 2.026
13.3480 16.084 2.043
13.3889 13.116 2.003
13.4297 16.241 2.042
13.4705 18.847 2.074
13.5113 16.610 2.044
13.5522 15.154 2.024
13.5930 14.689 2.017
13.6338 14.277 2.010
13.6747 14.490 2.011
13.7155 12.569 1.985
13.7563 16.273 2.031
13.7972 15.395 2.019
13.8380 15.403 2.017
13.8788 18.015 2.049
13.9196 13.077 1.984
13.9605 16.420 2.026
14.0013 15.806 2.017
14.0421 12.588 1.973
14.0830 13.903 1.989
14.1238 12.718 1.972
14.1646 11.950 1.960
14.2055 13.735 1.982
14.2463 10.938 1.943
14.2871 11.058 1.943
14.3279 9.772 1.924
14.3688 11.039 1.940
14.4096 11.943 1.950
14.4504 9.565 1.916
14.4913 7.397 1.885
14.5321 5.699 1.860
14.5729 7.230 1.879
14.6138 12.356 1.947
14.6546 10.815 1.925
14.6954 9.744 1.909
14.7362 9.299 1.901
14.7771 6.980 1.867
14.8179 9.349 1.898
14.8587 5.520 1.843
14.8996 8.724 1.886
14.9404 10.314 1.906
14.9812 5.081 1.831
15.0220 7.193 1.859
15.0629 3.264 1.801
15.1037 5.326 1.829
15.1445 2.128 1.781
15.1854 5.909 1.833
15.2262 7.348 1.852
15.2670 7.224 1.848
15.3079 6.373 1.834
15.3487 2.345 1.774
15.3895 3.421 1.788
15.4303 4.968 1.808
15.4712 4.223 1.795
15.5120 0.875 1.744
15.5528 3.517 1.781
15.5937 1.577 1.750
15.6345 2.710 1.765
15.6753 4.417 1.788
15.7162 2.218 1.753
15.7570 2.520 1.755
15.7978 0.948 1.730
15.8386 2.397 1.749
15.8795 3.534 1.764
15.9203 -2.671 1.667
15.9611 0.291 1.711
16.0020 1.430 1.726
16.0428 -2.169 1.668
16.0836 -0.351 1.694
16.1244 3.135 1.745
16.1653 5.892 1.783
16.2061 0.889 1.706
16.2469 1.564 1.714
16.2878 1.303 1.708
16.3286 -2.812 1.641
16.3694 0.234 1.688
16.4103 1.562 1.707
16.4511 0.235 1.685
16.4919 3.335 1.731
16.5327 7.322 1.789
16.5736 10.476 1.833
16.6144 17.901 1.935
16.6552 12.463 1.859
16.6961 8.900 1.807
16.7369 8.411 1.799
16.7777 3.652 1.727
16.8186 2.383 1.707
16.8594 2.626 1.709
16.9002 5.421 1.750
16.9410 1.706 1.693
16.9819 2.524 1.704
17.0227 1.206 1.682
17.0635 1.192 1.680
17.1044 1.282 1.680
17.1452 1.894 1.688
17.1860 5.632 1.744
17.2268 2.391 1.693
17.2677 7.536 1.769
17.3085 9.453 1.796
17.3493 12.100 1.833
17.3902 11.987 1.830
17.4310 9.583 1.794
17.4718 11.399 1.818
17.5127 7.850 1.765
17.5535 6.334 1.741
17.5943 5.391 1.726
17.6351 4.762 1.715
17.6760 3.873 1.700
17.7168 3.297 1.689
17.7576 6.107 1.731
17.7985 0.949 1.649
17.8393 2.563 1.673
17.8801 3.396 1.684
17.9210 4.230 1.696
17.9618 5.742 1.717
18.0026 4.650 1.699
18.0434 5.017 1.703
18.0843 4.239 1.689
18.1251 1.952 1.652
18.1659 2.321 1.656
18.2068 1.545 1.642
18.2476 2.645 1.658
18.2884 3.173 1.664
18.3292 4.900 1.689
18.3701 0.741 1.622
18.4109 3.251 1.660
18.4517 5.448 1.693
18.4926 3.479 1.660
18.5334 1.564 1.628
18.5742 7.305 1.716
18.6151 2.630 1.641
18.6559 7.018 1.708
18.6967 5.158 1.677
18.7375 5.120 1.675
18.7784 1.751 1.620
18.8192 2.600 1.631
18.8600 6.576 1.692
18.9009 1.958 1.617
18.9417 1.976 1.615
18.9825 5.485 1.669
19.0234 5.245 1.663
19.0642 3.026 1.626
19.1050 5.912 1.670
19.1458 1.038 1.590
19.1867 3.561 1.629
19.2275 1.188 1.588
19.2683 4.181 1.635
19.3092 4.258 1.634
19.3500 1.628 1.589
19.3908 3.216 1.613
19.4316 2.462 1.599
19.4725 5.719 1.649
19.5133 2.675 1.598
19.5541 1.871 1.582
19.5950 2.786 1.595
19.6358 6.046 1.645
19.6766 2.171 1.581
19.7175 6.422 1.647
19.7583 2.132 1.575
19.7991 5.551 1.629
19.8399 5.637 1.628
19.8808 7.339 1.653
19.9216 10.343 1.697
19.9624 20.692 1.847
20.0033 41.562 2.119
20.0441 32.329 2.001
20.0849 27.524 1.936
20.1258 35.480 2.038
20.1666 43.176 2.132
20.2074 44.779 2.150
20.2482 40.185 2.092
20.2891 32.155 1.987
20.3299 18.812 1.802
20.3707 20.626 1.826
20.4116 10.619 1.675
20.4524 3.789 1.562
20.4932 2.116 1.532
20.5340 2.735 1.540
20.5749 1.845 1.522
20.6157 0.434 1.495
20.6565 1.785 1.516
20.6974 0.167 1.485
20.7382 1.519 1.506
20.7790 1.518 1.503
20.8199 -0.983 1.456
20.8607 2.299 1.511
20.9015 2.143 1.506
20.9423 -1.241 1.443
20.9832 0.532 1.472
21.0240 0.483 1.469
21.0648 -1.805 1.424
21.1057 -1.748 1.423
21.1465 0.705 1.464
21.1873 0.450 1.456
21.2282 -0.064 1.444
21.2690 -0.422 1.435
21.3098 1.201 1.461
21.3506 -0.040 1.436
21.3915 -0.291 1.428
21.4323 -0.906 1.414
21.4731 1.136 1.448
21.5140 0.262 1.429
21.5548 0.483 1.430
21.5956 -0.911 1.401
21.6364 2.593 1.462
21.6773 0.211 1.416
21.7181 1.476 1.436
21.7589 4.044 1.479
21.7998 4.530 1.484
21.8406 5.693 1.501
21.8814 4.669 1.480
21.9223 6.875 1.516
21.9631 2.207 1.430
22.0039 5.092 1.479
22.0447 1.571 1.412
22.0856 1.228 1.402
22.1264 1.927 1.412
22.1672 -1.383 1.346
22.2081 -0.490 1.360
22.2489 -1.071 1.346
22.2897 -0.766 1.349
22.3306 -0.825 1.345
22.3714 -0.362 1.351
22.4122 0.372 1.363
22.4530 2.417 1.400
22.4939 1.755 1.387
22.5347 0.364 1.359
22.5755 -0.245 1.346
22.6164 1.595 1.380
22.6572 1.040 1.368
22.6980 -1.598 1.316
22.7388 0.974 1.364
22.7797 -0.725 1.330
22.8205 0.806 1.358
22.8613 0.879 1.358
22.9022 -2.016 1.300
22.9430 0.872 1.355
22.9838 -0.199 1.333
23.0247 0.294 1.341
23.0655 -1.087 1.312
23.1063 2.220 1.375
23.1471 2.298 1.375
23.1880 0.867 1.346
23.2288 0.530 1.338
23.2696 0.819 1.342
23.3105 -0.775 1.309
23.3513 0.175 1.327
23.3921 1.074 1.343
23.4330 1.140 1.343
23.4738 -0.980 1.300
23.5146 -0.392 1.310
23.5554 2.021 1.356
23.5963 0.735 1.330
23.6371 0.857 1.331
23.6779 0.303 1.319
23.7188 1.885 1.348
23.7596 -1.273 1.284
23.8004 0.154 1.311
23.8413 0.071 1.308
23.8821 1.500 1.335
23.9229 -0.821 1.287
23.9637 0.765 1.318
24.0046 0.112 1.303
24.0454 1.856 1.336
24.0862 -0.098 1.296
24.1271 2.220 1.340
24.1679 0.789 1.310
24.2087 1.702 1.327
24.2495 0.272 1.297
24.2904 1.135 1.312
24.3312 0.956 1.307
24.3720 0.414 1.295
24.4129 0.862 1.302
24.4537 -1.554 1.251
24.4945 -2.927 1.220
24.5354 0.387 1.287
24.5762 0.630 1.291
24.6170 -1.731 1.240
24.6578 2.211 1.319
24.6987 0.737 1.287
24.7395 -0.693 1.256
24.7803 -0.882 1.251
24.8212 1.430 1.297
24.8620 1.295 1.293
24.9028 2.150 1.308
24.9437 0.037 1.264
24.9845 1.102 1.284
25.0253 -0.541 1.249
25.0661 -2.443 1.207
25.1070 -0.231 1.252
25.1478 2.347 1.303
25.1886 2.010 1.295
25.2295 1.933 1.292
25.2703 -0.591 1.238
25.3111 1.365 1.277
25.3519 -0.689 1.233
25.3928 -1.279 1.219
25.4336 2.043 1.288
25.4744 -1.406 1.217
25.5153 1.286 1.274
25.5561 0.230 1.252
25.5969 1.205 1.273
25.6378 0.670 1.262
25.6786 -0.749 1.233
25.7194 1.061 1.270
25.7602 -0.096 1.247
25.8011 0.622 1.262
25.8419 2.904 1.308
25.8827 2.582 1.302
25.9236 2.417 1.299
25.9644 5.742 1.364
26.0052 10.422 1.451
26.0461 10.676 1.456
26.0869 6.295 1.375
26.1277 6.550 1.380
26.1685 5.973 1.369
26.2094 6.907 1.387
26.2502 2.737 1.306
26.2910 1.693 1.285
26.3319 3.202 1.316
26.3727 3.982 1.331
26.4135 1.899 1.290
26.4543 2.993 1.311
26.4952 3.255 1.317
26.5360 4.403 1.339
26.5768 6.176 1.373
26.6177 9.461 1.434
26.6585 12.850 1.494
26.6993 9.157 1.428
26.7402 6.663 1.382
26.7810 15.419 1.538
26.8218 12.145 1.481
26.8626 12.830 1.493
26.9035 13.307 1.501
26.9443 15.243 1.534
26.9851 16.764 1.560
27.0260 16.930 1.562
27.0668 17.619 1.574
27.1076 17.527 1.572
27.1485 18.685 1.591
27.1893 16.615 1.556
27.2301 14.494 1.520
27.2709 19.457 1.603
27.3118 14.629 1.522
27.3526 16.208 1.549
27.3934 12.839 1.491
27.4343 11.190 1.461
27.4751 12.615 1.486
27.5159 7.634 1.396
27.5567 8.175 1.405
27.5976 3.404 1.313
27.6384 5.509 1.354
27.6792 4.073 1.326
27.7201 2.585 1.296
27.7609 2.765 1.299
27.8017 2.268 1.288
27.8426 1.824 1.279
27.8834 0.860 1.259
27.9242 0.626 1.253
27.9650 0.132 1.242
28.0059 -1.038 1.217
28.0467 1.074 1.261
28.0875 1.572 1.270
28.1284 -0.221 1.233
28.1692 1.685 1.272
28.2100 1.091 1.259
28.2509 3.155 1.300
28.2917 3.396 1.304
28.3325 9.888 1.427
28.3733 13.620 1.493
28.4142 10.947 1.445
28.4550 5.253 1.338
28.4958 10.706 1.440
28.5367 20.379 1.604
28.5775 19.791 1.594
28.6183 11.705 1.456
28.6591 26.119 1.693
28.7000 42.566 1.929
28.7408 29.846 1.748
28.7816 12.231 1.462
28.8225 6.596 1.357
28.8633 19.764 1.589
28.9041 15.016 1.509
28.9450 7.300 1.368
28.9858 3.126 1.285
29.0266 1.505 1.251
29.0674 0.926 1.238
29.1083 3.526 1.291
29.1491 3.053 1.280
29.1899 -0.753 1.199
29.2308 0.130 1.217
29.2716 4.138 1.299
29.3124 -0.603 1.199
29.3533 -1.697 1.174
29.3941 -0.603 1.197
29.4349 -1.905 1.167
29.4757 1.535 1.240
29.5166 -1.588 1.172
29.5574 2.484 1.259
29.5982 2.494 1.259
29.6391 0.161 1.209
29.6799 2.308 1.254
29.7207 3.310 1.275
29.7615 2.385 1.255
29.8024 4.430 1.297
29.8432 5.747 1.323
29.8840 9.355 1.392
29.9249 7.600 1.358
29.9657 3.190 1.270
30.0065 4.822 1.303
30.0474 3.538 1.277
30.0882 3.400 1.274
30.1290 0.399 1.210
30.1698 0.367 1.209
30.2107 0.596 1.214
30.2515 1.034 1.223
30.2923 -0.141 1.197
30.3332 0.194 1.204
30.3740 0.946 1.219
30.4148 1.386 1.228
30.4557 2.140 1.243
30.4965 1.905 1.238
30.5373 0.316 1.204
30.5781 1.124 1.220
30.6190 0.422 1.205
30.6598 1.700 1.231
30.7006 0.583 1.207
30.7415 1.654 1.229
30.7823 2.674 1.250
30.8231 2.236 1.240
30.8639 1.643 1.227
30.9048 -0.096 1.189
30.9456 5.146 1.298
30.9864 6.013 1.315
31.0273 3.964 1.273
31.0681 4.155 1.276
31.1089 1.743 1.225
31.1498 6.051 1.312
31.1906 4.890 1.288
31.2314 4.095 1.272
31.2722 4.498 1.279
31.3131 6.986 1.328
31.3539 3.484 1.256
31.3947 3.838 1.263
31.4356 6.484 1.316
31.4764 3.505 1.254
31.5172 3.496 1.253
31.5581 3.228 1.247
31.5989 4.626 1.275
31.6397 5.557 1.293
31.6805 2.270 1.224
31.7214 2.420 1.226
31.7622 3.926 1.256
31.8030 3.245 1.241
31.8439 0.273 1.176
31.8847 2.250 1.218
31.9255 1.571 1.202
31.9664 1.049 1.190
32.0072 2.976 1.230
32.0480 -1.139 1.139
32.0888 0.607 1.179
32.1297 -0.406 1.156
32.1705 0.196 1.170
32.2113 -0.608 1.153
32.2522 1.505 1.200
32.2930 1.901 1.209
32.3338 2.037 1.213
32.3746 -1.160 1.142
32.4155 1.529 1.202
32.4563 0.574 1.182
32.4971 0.817 1.188
32.5380 -0.294 1.163
32.5788 3.544 1.247
32.6196 0.716 1.187
32.6605 1.118 1.196
32.7013 2.406 1.224
32.7421 0.362 1.180
32.7829 1.495 1.205
32.8238 3.098 1.239
32.8646 -0.299 1.166
32.9054 0.420 1.182
32.9463 0.619 1.187
32.9871 1.079 1.197
33.0279 -0.596 1.160
33.0688 0.594 1.187
33.1096 -0.506 1.162
33.1504 3.082 1.240
33.1912 2.035 1.218
33.2321 3.592 1.251
33.2729 4.109 1.262
33.3137 1.762 1.213
33.3546 3.895 1.258
33.3954 4.883 1.278
33.4362 6.445 1.309
33.4770 3.111 1.241
33.5179 4.101 1.262
33.5587 4.571 1.272
33.5995 5.510 1.291
33.6404 4.002 1.260
33.6812 5.620 1.293
33.7220 14.999 1.469
33.7629 41.879 1.887
33.8037 46.572 1.950
33.8445 25.849 1.650
33.8853 10.230 1.382
33.9262 6.436 1.308
33.9670 18.059 1.522
34.0078 26.766 1.664
34.0487 12.348 1.421
34.0895 3.765 1.253
34.1303 1.953 1.215
34.1712 0.819 1.190
34.2120 -1.408 1.140
34.2528 -0.613 1.158
34.2936 -0.495 1.160
34.3345 0.509 1.182
34.3753 0.212 1.175
34.4161 0.176 1.174
34.4570 -0.067 1.168
34.4978 1.669 1.206
34.5386 1.167 1.195
34.5794 -0.064 1.167
34.6203 -0.565 1.155
34.6611 -0.857 1.148
34.7019 1.351 1.197
34.7428 1.009 1.189
34.7836 0.042 1.167
34.8244 2.617 1.223
34.8653 2.797 1.226
34.9061 2.301 1.215
34.9469 0.868 1.183
34.9877 1.884 1.205
35.0286 3.942 1.248
35.0694 5.480 1.279
35.1102 6.602 1.301
35.1511 4.236 1.252
35.1919 2.443 1.214
35.2327 1.588 1.195
35.2736 0.317 1.166
35.3144 3.578 1.236
35.3552 2.777 1.218
35.3960 0.623 1.170
35.4369 0.970 1.177
35.4777 -0.558 1.142
35.5185 2.759 1.215
35.5594 1.076 1.177
35.6002 -0.085 1.151
35.6410 0.265 1.158
35.6818 -3.290 1.074
35.7227 1.541 1.184
35.7635 -1.701 1.110
35.8043 0.215 1.153
35.8452 1.819 1.188
35.8860 -0.379 1.138
35.9268 -0.128 1.142
35.9677 3.093 1.213
36.0085 3.449 1.219
36.0493 2.296 1.193
36.0901 0.779 1.159
36.1310 3.117 1.209
36.1718 0.560 1.152
36.2126 0.191 1.142
36.2535 4.250 1.230
36.2943 3.726 1.218
36.3351 1.276 1.163
36.3760 1.274 1.162
36.4168 1.065 1.156
36.4576 0.753 1.148
36.4984 2.160 1.179
36.5393 0.963 1.151
36.5801 1.330 1.158
36.6209 -0.074 1.124
36.6618 2.794 1.188
36.7026 1.340 1.154
36.7434 0.043 1.123
36.7842 1.299 1.151
36.8251 0.680 1.135
36.8659 -0.250 1.112
36.9067 -0.763 1.099
36.9476 -1.224 1.086
36.9884 0.473 1.126
37.0292 1.649 1.152
37.0701 -0.924 1.091
37.1109 1.191 1.140
37.1517 1.692 1.151
37.1925 -0.150 1.107
37.2334 0.978 1.133
37.2742 0.752 1.127
37.3150 3.339 1.184
37.3559 4.677 1.213
37.3967 4.297 1.204
37.4375 4.179 1.200
37.4784 3.852 1.192
37.5192 3.526 1.184
37.5600 2.212 1.154
37.6008 1.315 1.133
37.6417 3.856 1.189
37.6825 4.470 1.201
37.7233 3.055 1.169
37.7642 1.848 1.141
37.8050 0.225 1.102
37.8458 2.093 1.145
37.8866 0.263 1.101
37.9275 -0.108 1.091
37.9683 0.043 1.094
38.0091 0.351 1.100
38.0500 -0.278 1.084
38.0908 -0.281 1.083
38.1316 0.706 1.105
38.1725 -0.181 1.083
38.2133 1.745 1.127
38.2541 1.016 1.109
38.2949 -0.025 1.083
38.3358 2.059 1.130
38.3766 0.342 1.089
38.4174 -0.072 1.078
38.4583 -1.110 1.051
38.4991 1.446 1.111
38.5399 -1.049 1.049
38.5808 0.452 1.085
38.6216 0.236 1.079
38.6624 0.020 1.072
38.7032 -0.715 1.053
38.7441 0.529 1.083
38.7849 1.201 1.097
38.8257 2.238 1.121
38.8666 0.724 1.084
38.9074 0.253 1.071
38.9482 3.375 1.143
38.9890 3.009 1.134
39.0299 3.061 1.134
39.0707 3.113 1.134
39.1115 0.717 1.076
39.1524 1.708 1.099
39.1932 1.138 1.084
39.2340 1.453 1.090
39.2749 0.467 1.065
39.3157 0.523 1.065
39.3565 1.622 1.090
39.3973 -0.299 1.042
39.4382 -0.554 1.034
39.4790 0.235 1.052
39.5198 -1.268 1.013
39.5607 1.762 1.086
39.6015 -0.469 1.030
39.6423 4.229 1.141
39.6832 -0.031 1.038
39.7240 0.070 1.039
39.7648 -1.039 1.010
39.8056 0.404 1.046
39.8465 -0.080 1.033
39.8873 1.105 1.061
39.9281 -0.367 1.023
39.9690 1.079 1.058
40.0098 -0.495 1.018
40.0506 1.057 1.056
40.0915 -0.360 1.019
40.1323 0.985 1.052
40.1731 -0.118 1.023
40.2139 1.176 1.055
40.2548 1.273 1.056
40.2956 1.110 1.051
40.3364 1.469 1.058
40.3773 1.412 1.056
40.4181 -1.145 0.990
40.4589 -0.992 0.992
40.4997 1.397 1.052
40.5406 0.089 1.018
40.5814 -0.698 0.996
40.6222 3.204 1.093
40.6631 2.419 1.072
40.7039 1.895 1.058
40.7447 1.632 1.051
40.7856 0.693 1.026
40.8264 3.504 1.094
40.8672 0.118 1.009
40.9080 0.848 1.026
40.9489 -0.974 0.977
40.9897 0.539 1.015
41.0305 2.885 1.072
41.0714 1.742 1.043
41.1122 0.809 1.018
41.1530 0.345 1.005
41.1939 -1.108 0.965
41.2347 0.252 0.999
41.2755 1.457 1.029
41.3163 0.788 1.010
41.3572 0.796 1.009
41.3980 -0.028 0.985
41.4388 2.221 1.042
41.4797 2.388 1.044
41.5205 1.618 1.023
41.5613 -0.454 0.967
41.6021 0.913 1.002
41.6430 1.604 1.018
41.6838 1.461 1.013
41.7246 0.070 0.974
41.7655 3.054 1.049
41.8063 0.206 0.974
41.8471 0.535 0.981
41.8880 -0.828 0.943
41.9288 1.742 1.011
41.9696 -0.114 0.962
42.0104 0.061 0.966
42.0513 0.133 0.967
42.0921 -0.054 0.962
42.1329 1.269 0.996
42.1738 -0.532 0.948
42.2146 2.199 1.019
42.2554 1.442 0.999
42.2963 0.633 0.977
42.3371 1.543 1.000
42.3779 1.360 0.995
42.4187 -0.749 0.937
42.4596 1.414 0.995
42.5004 0.296 0.965
42.5412 1.783 1.003
42.5821 -1.750 0.907
42.6229 1.625 0.999
42.6637 -0.208 0.950
42.7045 0.304 0.965
42.7454 1.129 0.987
42.7862 0.288 0.965
42.8270 0.333 0.966
42.8679 0.119 0.960
42.9087 -0.043 0.956
42.9495 1.202 0.990
42.9904 1.354 0.994
43.0312 -1.566 0.914
43.0720 0.098 0.960
43.1128 -1.675 0.911
43.1537 0.616 0.974
43.1945 -0.843 0.935
43.2353 0.147 0.962
43.2762 0.512 0.972
43.3170 -0.892 0.933
43.3578 -0.473 0.945
43.3987 1.093 0.987
43.4395 -0.831 0.935
43.4803 -0.878 0.933
43.5211 0.169 0.962
43.5620 0.331 0.966
43.6028 1.379 0.994
43.6436 0.032 0.958
43.6845 -0.376 0.946
43.7253 0.362 0.966
43.7661 0.788 0.977
43.8069 0.434 0.967
43.8478 -1.482 0.914
43.8886 -0.325 0.946
43.9294 1.406 0.992
43.9703 1.472 0.994
44.0111 0.027 0.955
44.0519 0.146 0.958
44.0928 -0.151 0.949
44.1336 2.729 1.025
44.1744 1.340 0.988
44.2152 1.774 0.999
44.2561 2.313 1.013
44.2969 -0.325 0.942
44.3377 2.560 1.018
44.3786 1.955 1.002
44.4194 1.351 0.985
44.4602 2.310 1.010
44.5011 0.093 0.950
44.5419 1.002 0.974
44.5827 3.265 1.033
44.6235 0.321 0.955
44.6644 1.857 0.995
44.7052 2.716 1.017
44.7460 0.295 0.952
44.7869 1.781 0.991
44.8277 1.653 0.987
44.8685 2.515 1.009
44.9093 1.242 0.974
44.9502 1.689 0.985
44.9910 0.627 0.956
45.0318 1.440 0.977
45.0727 1.264 0.972
45.1135 -0.370 0.926
45.1543 -0.544 0.920
45.1952 0.949 0.960
45.2360 1.089 0.963
45.2768 -0.907 0.907
45.3176 -1.090 0.901
45.3585 -0.074 0.929
45.3993 0.994 0.958
45.4401 -0.645 0.911
45.4810 0.321 0.937
45.5218 2.745 1.002
45.5626 1.212 0.960
45.6035 3.534 1.021
45.6443 2.940 1.005
45.6851 2.764 0.999
45.7259 0.296 0.932
45.7668 0.173 0.927
45.8076 3.540 1.017
45.8484 4.096 1.030
45.8893 4.027 1.027
45.9301 4.479 1.038
45.9709 2.537 0.987
46.0117 2.626 0.988
46.0526 0.269 0.923
46.0934 2.756 0.990
46.1342 3.108 0.998
46.1751 2.210 0.973
46.2159 1.887 0.963
46.2567 -0.884 0.884
46.2976 1.462 0.950
46.3384 -0.358 0.899
46.3792 1.364 0.948
46.4200 1.264 0.945
46.4609 0.852 0.933
46.5017 -0.184 0.904
46.5425 1.645 0.955
46.5834 -0.119 0.905
46.6242 -0.216 0.902
46.6650 1.043 0.937
46.7059 0.635 0.926
46.7467 0.906 0.933
46.7875 2.322 0.972
46.8283 -0.271 0.899
46.8692 2.085 0.965
46.9100 -0.558 0.890
46.9508 -1.326 0.867
46.9917 1.240 0.940
47.0325 -0.256 0.898
47.0733 1.687 0.952
47.1141 -1.213 0.868
47.1550 0.366 0.914
47.1958 0.853 0.927
47.2366 1.652 0.949
47.2775 -0.204 0.896
47.3183 -0.027 0.901
47.3591 0.566 0.917
47.4000 0.067 0.902
47.4408 -0.016 0.899
47.4816 1.361 0.937
47.5224 -0.542 0.882
47.5633 1.617 0.943
47.6041 -0.337 0.887
47.6449 -0.155 0.892
47.6858 0.704 0.916
47.7266 1.721 0.943
47.7674 0.186 0.899
47.8083 1.621 0.939
47.8491 0.504 0.907
47.8899 0.118 0.895
47.9307 0.409 0.902
47.9716 0.909 0.916
48.0124 1.097 0.920
48.0532 1.442 0.929
48.0941 1.163 0.920
48.1349 1.093 0.917
48.1757 -0.538 0.868
48.2165 1.633 0.930
48.2574 -0.206 0.876
48.2982 1.342 0.920
48.3390 0.754 0.902
48.3799 0.637 0.898
48.4207 0.572 0.895
48.4615 0.768 0.899
48.5024 -0.129 0.872
48.5432 0.850 0.899
48.5840 0.163 0.878
48.6248 1.143 0.905
48.6657 -0.845 0.845
48.7065 0.339 0.881
48.7473 2.252 0.936
48.7882 -1.198 0.835
48.8290 1.602 0.918
48.8698 0.705 0.893
48.9107 1.267 0.910
48.9515 1.152 0.907
48.9923 0.987 0.902
49.0331 1.447 0.916
49.0740 1.335 0.913
49.1148 1.952 0.930
49.1556 1.737 0.924
49.1965 1.575 0.920
49.2373 2.351 0.942
49.2781 0.472 0.888
49.3190 1.614 0.921
49.3598 0.049 0.876
49.4006 1.348 0.914
49.4414 0.930 0.902
49.4823 1.242 0.911
49.5231 0.773 0.898
49.5639 0.982 0.904
49.6048 1.035 0.905
49.6456 0.308 0.884
49.6864 0.571 0.892
49.7272 0.471 0.888
49.7681 -0.098 0.872
49.8089 -0.093 0.872
49.8497 2.308 0.940
49.8906 0.544 0.890
49.9314 -0.647 0.854
49.9722 -0.848 0.848
49.9926 0.000 0.851